timestamp,drone_id,x,y,z,vx,vy,vz,ax,ay,az,heading
1781085639088037,px4_8,0.04401250556111336,-0.028526313602924347,0.074951171875,0.042524632066488266,-0.04730181768536568,-0.009614337235689163,0.022757288068532944,-0.04617578163743019,-0.005016568582504988,1.5349053144454956
1781085639112037,px4_8,0.04431121051311493,-0.029188191518187523,0.074951171875,0.04262316972017288,-0.047726813703775406,-0.010475259274244308,0.042099129408597946,-0.025174299255013466,0.019791999831795692,1.5348798036575317
1781085639128037,px4_8,0.04456358030438423,-0.029660798609256744,0.074920654296875,0.043213434517383575,-0.04838008061051369,-0.011492175981402397,0.015914620831608772,-0.007861060090363026,-0.09963846951723099,1.534830927848816
1781085639152037,px4_8,0.04502212256193161,-0.030402565374970436,0.0748291015625,0.04401564225554466,-0.04786381870508194,-0.012588993646204472,0.018855005502700806,0.06704618036746979,-0.04864250868558884,1.5348901748657227
1781085639168037,px4_8,0.044303253293037415,-0.029958879575133324,0.074737548828125,0.04430019482970238,-0.046976134181022644,-0.012867781333625317,0.058008015155792236,-0.0030824870336800814,-0.024881677702069283,1.534885048866272
1781085639192037,px4_8,0.0433826707303524,-0.02939584106206894,0.074615478515625,0.04345912113785744,-0.04700324684381485,-0.012464473955333233,-0.011684990487992764,-0.07910256087779999,0.09625078737735748,1.534845232963562
1781085639208037,px4_8,0.0428609624505043,-0.02910076640546322,0.074554443359375,0.04346691817045212,-0.04684890806674957,-0.012175497598946095,0.07592453807592392,0.004534743260592222,0.0034943220671266317,1.5349229574203491
1781085639232037,px4_8,0.042221613228321075,-0.0287700854241848,0.074462890625,0.04341529309749603,-0.04857750982046127,-0.013720913790166378,0.0017788842087611556,-0.11653599143028259,-0.0820099338889122,1.5348960161209106
1781085639248037,px4_8,0.04186967760324478,-0.028634393587708473,0.074371337890625,0.04269924387335777,-0.049096640199422836,-0.013830968178808689,-0.004237590357661247,-0.022072233259677887,0.022168269380927086,1.534623622894287
1781085639272037,px4_8,0.04144500195980072,-0.028535407036542892,0.074249267578125,0.04204396903514862,-0.05082792788743973,-0.01409330777823925,-0.002109019784256816,-0.03809095174074173,-0.011363065801560879,1.5345691442489624
1781085639288037,px4_8,0.041224297136068344,-0.028531942516565323,0.07415771484375,0.041604183614254,-0.05007432401180267,-0.014299575239419937,0.02103780396282673,0.07759340107440948,-0.027674714103341103,1.5346648693084717
1781085639312037,px4_8,0.040992382913827896,-0.028576895594596863,0.073974609375,0.041601721197366714,-0.04973255470395088,-0.014233208261430264,0.024514812976121902,-0.04350925609469414,0.018887219950556755,1.535048484802246
1781085639328037,px4_8,0.04090483486652374,-0.028659308329224586,0.0738525390625,0.04214385151863098,-0.049463167786598206,-0.013999161310493946,0.07076661288738251,0.07118997722864151,0.016067640855908394,1.5350810289382935
1781085639305993,px4_2,3.829798698425293,-0.2757072448730469,-2.930908203125,-0.2646060883998871,-2.898573160171509,-0.02974843978881836,-1.397599458694458,-1.5855228900909424,0.2386472076177597,0.0007724341121502221
1781085639352037,px4_8,0.040851302444934845,-0.028827834874391556,0.073638916015625,0.04233575612306595,-0.048689451068639755,-0.012844419106841087,-0.010272799991071224,0.017313038930296898,0.10467692464590073,1.5352351665496826
1781085639329993,px4_2,3.8288540840148926,-0.3371855616569519,-2.93023681640625,-0.29685235023498535,-2.929645538330078,-0.026501892134547234,-1.5150959491729736,-1.3550360202789307,0.08065439015626907,0.0007910628337413073
1781085639368037,px4_8,0.04086916148662567,-0.028977442532777786,0.073516845703125,0.04241223260760307,-0.04923331364989281,-0.012640188448131084,0.0804295539855957,-0.12665024399757385,-0.014591961167752743,1.5351500511169434
1781085639345993,px4_2,3.8275253772735596,-0.3789528012275696,-2.929840087890625,-0.3174717426300049,-2.9503164291381836,-0.025393642485141754,-1.3143712282180786,-1.4668753147125244,0.042150724679231644,0.0008742162026464939
1781085639392037,px4_8,0.04099687188863754,-0.029279155656695366,0.073333740234375,0.043636806309223175,-0.049401696771383286,-0.012532364577054977,0.10653132200241089,-0.034262094646692276,-0.02909218706190586,1.535267949104309
1781085639369993,px4_2,3.8245346546173096,-0.44273802638053894,-2.929290771484375,-0.35036659240722656,-2.9793102741241455,-0.026326706632971764,-1.473422646522522,-1.3008427619934082,-0.03033224307000637,0.0009139836183749139
1781085639408037,px4_8,0.041138142347335815,-0.029513521119952202,0.073211669921875,0.04323717579245567,-0.04857425019145012,-0.012314981780946255,0.006982110440731049,0.06511347740888596,-0.012410803698003292,1.5353187322616577
1781085639393993,px4_2,3.820333242416382,-0.5077801942825317,-2.9288330078125,-0.38396933674812317,-3.006448984146118,-0.027948958799242973,-1.5087695121765137,-1.1855931282043457,-0.11934991180896759,0.0006577479070983827
1781085639432037,px4_8,0.04141079634428024,-0.029883814975619316,0.073028564453125,0.04329454526305199,-0.04688664525747299,-0.013512106612324715,0.07597027719020844,0.0425279401242733,-0.06834370642900467,1.5352458953857422
1781085639409993,px4_2,3.8168907165527344,-0.5517995953559875,-2.9285888671875,-0.4046831429004669,-3.024242877960205,-0.028108270838856697,-1.3799270391464233,-1.1474084854125977,0.013546551577746868,0.0005429616430774331
1781085639411421,px4_7,0.026826106011867523,-0.01944386027753353,0.05718994140625,0.039060190320014954,-0.044516421854496,-0.003550350433215499,-0.08039326220750809,-0.07115756720304489,-0.052043233066797256,1.5375057458877563
1781085639448037,px4_8,0.04165516793727875,-0.03014657087624073,0.072906494140625,0.04476284235715866,-0.04665112495422363,-0.01353633776307106,0.08186301589012146,-0.04180699586868286,-0.02706143818795681,1.5352684259414673
1781085639425993,px4_2,3.81294846534729,-0.5963242053985596,-2.928375244140625,-0.42622897028923035,-3.041126251220703,-0.029634805396199226,-1.3968737125396729,-1.1116440296173096,-0.14466512203216553,0.0006016452680341899
1781085639427421,px4_7,0.027156773954629898,-0.0199175663292408,0.05718994140625,0.037990204989910126,-0.044230151921510696,-0.004720165394246578,-0.06485820561647415,0.062147632241249084,-0.07915402948856354,1.5376479625701904
1781085639472037,px4_8,0.042088184505701065,-0.030589381232857704,0.07269287109375,0.04606199637055397,-0.04725102707743645,-0.013203267939388752,0.09680627286434174,-0.06633880734443665,-0.003556255018338561,1.5352489948272705
1781085639449993,px4_2,3.806112766265869,-0.6639779806137085,-2.928192138671875,-0.4587991237640381,-3.063523530960083,-0.030662590637803078,-1.4339300394058228,-1.035230278968811,-0.08260923624038696,0.00047261008876375854
1781085639451421,px4_7,0.027669575065374374,-0.02062682807445526,0.057159423828125,0.03735259920358658,-0.0435405895113945,-0.00495302677154541,-0.00876725185662508,-0.05423823744058609,-0.03787688538432121,1.5374161005020142
1781085639488037,px4_8,0.042439643293619156,-0.030922628939151764,0.072540283203125,0.045679543167352676,-0.04777147248387337,-0.013332738541066647,-0.06975192576646805,-0.04122612997889519,0.021087003871798515,1.5354336500167847
1781085639465993,px4_2,3.800942897796631,-0.7096360921859741,-2.9281005859375,-0.480908066034317,-3.0788094997406006,-0.031454142183065414,-1.4735736846923828,-1.0246694087982178,-0.028302891179919243,0.0006662050727754831
1781085639467421,px4_7,0.02804349921643734,-0.021126823499798775,0.05712890625,0.03787635639309883,-0.044164855033159256,-0.003724404377862811,0.00952358078211546,-0.028843283653259277,0.0533936507999897,1.5373880863189697
1781085639512037,px4_8,0.04303709790110588,-0.031510259956121445,0.0723876953125,0.04713330417871475,-0.050181757658720016,-0.010984481312334538,0.009174581617116928,-0.04855826869606972,0.03175763040781021,1.5354559421539307
1781085639489993,px4_2,3.7922732830047607,-0.7788968682289124,-2.928070068359375,-0.5141940712928772,-3.099362373352051,-0.03223036229610443,-1.4306532144546509,-1.0024075508117676,-0.0474308580160141,0.000572390272282064
1781085639491421,px4_7,0.02864009141921997,-0.021896515041589737,0.057098388671875,0.0377388522028923,-0.04374502971768379,-0.004938782192766666,0.055416498333215714,-0.08145064860582352,-0.03883568197488785,1.5373284816741943
1781085639528037,px4_8,0.043477773666381836,-0.031942952424287796,0.072265625,0.04678374156355858,-0.049833741039037704,-0.011118675582110882,-0.03771570324897766,0.04597930610179901,0.015099531970918179,1.5354633331298828
1781085639505993,px4_2,3.785895347595215,-0.8255764245986938,-2.9281005859375,-0.5362226963043213,-3.112962245941162,-0.03291870653629303,-1.438206672668457,-0.9060445427894592,-0.04530232027173042,0.0005267378874123096
1781085639507421,px4_7,0.02907194383442402,-0.022432323545217514,0.057037353515625,0.038004256784915924,-0.044220611453056335,-0.004301554057747126,-0.020034674555063248,-0.013563266023993492,0.07041077315807343,1.5373655557632446
1781085639552360,px4_8,0.04419521614909172,-0.03262237459421158,0.0721435546875,0.047836121171712875,-0.05037218704819679,-0.0098064374178648,0.015022413805127144,-0.058765195310115814,0.008459667675197124,1.5354864597320557
1781085639529993,px4_2,3.775432825088501,-0.8962772488594055,-2.92816162109375,-0.5707921981811523,-3.130242347717285,-0.03074624389410019,-1.504455804824829,-0.8208146691322327,0.03311363607645035,0.0004619492101483047
1781085639531421,px4_7,0.02975236065685749,-0.02326134406030178,0.05694580078125,0.03758743777871132,-0.044332996010780334,-0.003799709491431713,-0.06551620364189148,-0.027052005752921104,0.1051085963845253,1.5372974872589111
1781085639534714,px4_5,0.03700970113277435,-0.033169057220220566,0.074310302734375,0.0454755537211895,-0.05876019597053528,-0.00664452463388443,0.07694853097200394,-0.0468476265668869,0.05666259303689003,1.5401668548583984
1781085639568360,px4_8,0.043542664498090744,-0.03209337219595909,0.072021484375,0.04617000371217728,-0.04946896433830261,-0.010146500542759895,-0.08731189370155334,0.011286627501249313,-0.05752360075712204,1.535377025604248
1781085639545993,px4_2,3.7678442001342773,-0.9438562989234924,-2.928192138671875,-0.5925243496894836,-3.141664743423462,-0.031692326068878174,-1.4166356325149536,-0.8052058219909668,-0.03490736335515976,0.0005804835818707943
1781085639547421,px4_7,0.029055574908852577,-0.022700397297739983,0.056884765625,0.03638853132724762,-0.0450485534965992,-0.004194493405520916,-0.07075164467096329,-0.09875623136758804,-0.061483584344387054,1.5373603105545044
1781085639558714,px4_5,0.03655172139406204,-0.032243043184280396,0.0743408203125,0.04474828019738197,-0.05869760736823082,-0.007104949094355106,-0.03620389103889465,0.01631137914955616,0.004219356458634138,1.5403050184249878
1781085639592360,px4_8,0.04267626628279686,-0.031399600207805634,0.071807861328125,0.04460225999355316,-0.04810367897152901,-0.009345936588943005,-0.05139290913939476,0.008792187087237835,0.0830264687538147,1.535563349723816
1781085639569993,px4_2,3.7555899620056152,-1.0158385038375854,-2.9283447265625,-0.6271867156028748,-3.1572155952453613,-0.033941686153411865,-1.49331533908844,-0.6730153560638428,-0.10052695125341415,0.0006294641643762589
1781085639571421,px4_7,0.02813207171857357,-0.021979695186018944,0.056793212890625,0.036313481628894806,-0.044199779629707336,-0.004437892232090235,0.06581138074398041,-0.005496281664818525,0.010488088242709637,1.5374951362609863
1781085639574714,px4_5,0.0363069511950016,-0.03171296790242195,0.074310302734375,0.04402635619044304,-0.05816120281815529,-0.007303051184862852,-0.0061285789124667645,-0.029917815700173378,-0.0654570683836937,1.5402413606643677
1781085639608360,px4_8,0.042181044816970825,-0.03099057450890541,0.07171630859375,0.04491154104471207,-0.046566542237997055,-0.008980272337794304,0.07857518643140793,0.017642784863710403,0.007078982423990965,1.5357162952423096
1781085639585993,px4_2,3.746843099594116,-1.064204454421997,-2.928466796875,-0.649289071559906,-3.1669321060180664,-0.035645950585603714,-1.3961129188537598,-0.6494113206863403,-0.1366366595029831,0.0006557233282364905
1781085639587421,px4_7,0.027608437463641167,-0.021560152992606163,0.0567626953125,0.036627475172281265,-0.042832519859075546,-0.004780265968292952,0.04587189853191376,0.06177493557333946,-0.1004398763179779,1.5376396179199219
1781085639598714,px4_5,0.03604418784379959,-0.03103371523320675,0.07427978515625,0.04435938224196434,-0.0568760484457016,-0.00698564387857914,0.07034146785736084,0.02083265408873558,-0.06423331052064896,1.5403919219970703
1781085639632360,px4_8,0.04156108200550079,-0.030457250773906708,0.071624755859375,0.043485138565301895,-0.04513097554445267,-0.008594388142228127,0.047640200704336166,0.07067956775426865,0.024106817319989204,1.535750389099121
1781085639609993,px4_2,3.732882261276245,-1.1372524499893188,-2.92877197265625,-0.6834943890571594,-3.177948236465454,-0.03832896426320076,-1.4598675966262817,-0.4972546398639679,0.007043126504868269,0.000843829708173871
1781085639611421,px4_7,0.026951691135764122,-0.021021543070673943,0.05670166015625,0.037495728582143784,-0.04274148494005203,-0.0048500350676476955,0.10092854499816895,-0.03108133189380169,-0.042331401258707047,1.5376821756362915
1781085639614714,px4_5,0.03592991083860397,-0.030651560053229332,0.07427978515625,0.04321165010333061,-0.05599050223827362,-0.007011602632701397,-0.05585952475667,0.049957942217588425,0.0063669863156974316,1.5405491590499878
1781085639648360,px4_8,0.041224293410778046,-0.030147967860102654,0.071563720703125,0.043360088020563126,-0.04454025626182556,-0.008097048848867416,0.04982757940888405,-0.0053102984093129635,0.009051523171365261,1.5356976985931396
1781085639625993,px4_2,3.7230069637298584,-1.1862503290176392,-2.92901611328125,-0.7060050368309021,-3.184927463531494,-0.03923105448484421,-1.4149243831634521,-0.4486350119113922,-0.03647338226437569,0.0008758839685469866
1781085639627421,px4_7,0.026593737304210663,-0.020731613039970398,0.056640625,0.03716350346803665,-0.04297195002436638,-0.00457246508449316,0.03240595757961273,-0.04332534968852997,-0.009129754267632961,1.537668228149414
1781085639638714,px4_5,0.03583217412233353,-0.030159030109643936,0.074249267578125,0.04360870271921158,-0.05453500896692276,-0.006349252536892891,0.0674467384815216,-0.05248457193374634,0.06965826451778412,1.5404752492904663
1781085639672360,px4_8,0.040803372859954834,-0.029775474220514297,0.071441650390625,0.04217124357819557,-0.04310838133096695,-0.007690334226936102,-0.015373747795820236,0.06079038977622986,0.009455251507461071,1.5357136726379395
1781085639649993,px4_2,3.7073850631713867,-1.2601531744003296,-2.929443359375,-0.7384409308433533,-3.193190813064575,-0.039346080273389816,-1.3303005695343018,-0.3766617476940155,-0.09195459634065628,0.0010793623514473438
1781085639651421,px4_7,0.02615736611187458,-0.020383596420288086,0.056610107421875,0.038411203771829605,-0.04300059378147125,-0.004079371690750122,0.11278045177459717,-0.06110093370079994,0.022456979379057884,1.5376739501953125
1781085639654714,px4_5,0.03583325445652008,-0.029902860522270203,0.074188232421875,0.043977029621601105,-0.055188048630952835,-0.006264881230890751,-0.004008863121271133,-0.12536989152431488,0.04449998587369919,1.5405478477478027
1781085639688360,px4_8,0.040574464946985245,-0.02956676483154297,0.071380615234375,0.04112546145915985,-0.04212735593318939,-0.007462496869266033,-0.010475232265889645,0.05022851377725601,0.02507958374917507,1.5358165502548218
1781085639665993,px4_2,3.696446418762207,-1.3096784353256226,-2.929779052734375,-0.7596819996833801,-3.199080228805542,-0.04028978571295738,-1.355924367904663,-0.33246541023254395,-0.029253771528601646,0.0010643843561410904
1781085639667421,px4_7,0.025947852060198784,-0.020216064527630806,0.056549072265625,0.03866199404001236,-0.04358105733990669,-0.004477920476347208,0.023593531921505928,-0.09822185337543488,0.0014761461643502116,1.5377228260040283
1781085639678714,px4_5,0.035904429852962494,-0.029644042253494263,0.074127197265625,0.04368413984775543,-0.05581749975681305,-0.004931583069264889,0.0069053745828568935,-0.04985633119940758,0.020866746082901955,1.5407224893569946
1781085639712360,px4_8,0.040335312485694885,-0.02933441661298275,0.071319580078125,0.04094064608216286,-0.042640071362257004,-0.00717969099059701,-0.1061338484287262,-0.010436167009174824,-0.040984708815813065,1.5361601114273071
1781085639689993,px4_2,3.680129289627075,-1.3839795589447021,-2.93017578125,-0.7922413945198059,-3.2059085369110107,-0.04436460882425308,-1.4179649353027344,-0.2717486321926117,-0.19232694804668427,0.001060372800566256
1781085639691421,px4_7,0.025726525112986565,-0.020062008872628212,0.05645751953125,0.03911684826016426,-0.04300234094262123,-0.0054954830557107925,0.08334508538246155,0.06691628694534302,-0.08738180249929428,1.5377275943756104
1781085639694714,px4_5,0.03600342944264412,-0.029547907412052155,0.074066162109375,0.04348157346248627,-0.05634502321481705,-0.005727613810449839,-0.06234951689839363,-0.07979229837656021,-0.02994714118540287,1.5408594608306885
1781085639728360,px4_8,0.04022564738988876,-0.029239417985081673,0.071258544921875,0.040427759289741516,-0.04335387051105499,-0.006214913912117481,-0.03094620257616043,-0.04748587682843208,0.02522021345794201,1.536036729812622
1781085639705993,px4_2,3.6698403358459473,-1.4333022832870483,-2.9302978515625,-0.8140012621879578,-3.209091901779175,-0.04528859257698059,-1.4544997215270996,-0.19568707048892975,-0.07079354673624039,0.001177618745714426
1781085639707421,px4_7,0.025646526366472244,-0.019998228177428246,0.056396484375,0.03953167423605919,-0.04340163618326187,-0.005425364710390568,0.05519774183630943,-0.07137162238359451,-0.04117143899202347,1.537713885307312
1781085639718714,px4_5,0.03620646521449089,-0.029516534879803658,0.074005126953125,0.043445486575365067,-0.05703619867563248,-0.005004168953746557,0.058758314698934555,-0.09535638988018036,-0.013843177817761898,1.5407549142837524
1781085639752360,px4_8,0.04015912115573883,-0.02917294017970562,0.071197509765625,0.042437613010406494,-0.04343722015619278,-0.005789659451693296,0.12454626709222794,-0.0715269073843956,0.0943564772605896,1.5358703136444092
1781085639729993,px4_2,3.6534945964813232,-1.5075894594192505,-2.9305419921875,-0.8451712131500244,-3.2115023136138916,-0.04755157604813576,-1.4212069511413574,-0.13386233150959015,-0.08506746590137482,0.0013175051426514983
1781085639731421,px4_7,0.0256283488124609,-0.01998010277748108,0.0562744140625,0.04047773405909538,-0.04359784722328186,-0.006694847252219915,0.04663453251123428,-0.07369695603847504,-2.79396749647276e-06,1.5378429889678955
1781085639734714,px4_5,0.036393746733665466,-0.029560372233390808,0.073944091796875,0.04304519295692444,-0.058069732040166855,-0.004363141488283873,-0.030747082084417343,-0.0875818058848381,0.06742588430643082,1.5407828092575073
1781085639768360,px4_8,0.04018344730138779,-0.029187167063355446,0.071197509765625,0.04261793941259384,-0.043733563274145126,-0.005615857429802418,0.01663558930158615,-0.06006142124533653,0.004243105184286833,1.5359549522399902
1781085639745993,px4_2,3.641996383666992,-1.5572844743728638,-2.9307861328125,-0.8674046993255615,-3.2122175693511963,-0.04969188570976257,-1.4407315254211426,-0.14976605772972107,-0.15404866635799408,0.0013344379840418696
1781085639747421,px4_7,0.025678936392068863,-0.020024606958031654,0.056182861328125,0.04114731401205063,-0.04472964257001877,-0.006893001031130552,0.04536687955260277,-0.12047852575778961,0.027466563507914543,1.5378068685531616
1781085639758714,px4_5,0.036727424710989,-0.029743991792201996,0.073974609375,0.04305379465222359,-0.059459488838911057,-0.003317339811474085,0.013593426905572414,-0.08620407432317734,0.023806465789675713,1.54087495803833
1781085639782524,px4_4,0.0400780513882637,-0.04095159098505974,0.081329345703125,0.04761137068271637,-0.058824170380830765,-0.002744753612205386,-0.003636974608525634,-0.10690173506736755,0.051768958568573,1.540786862373352
1781085639792360,px4_8,0.04029814153909683,-0.029273971915245056,0.071136474609375,0.04266735911369324,-0.042516790330410004,-0.006553927436470985,-0.06867525726556778,0.023336855694651604,-0.11470960080623627,1.5360711812973022
1781085639769993,px4_2,3.6238412857055664,-1.6320348978042603,-2.9312744140625,-0.900073766708374,-3.210139036178589,-0.052640870213508606,-1.3889434337615967,0.14353688061237335,-0.16197887063026428,0.0013314889511093497
1781085639771421,px4_7,0.02582850679755211,-0.02014762908220291,0.056060791015625,0.04151430353522301,-0.04401790350675583,-0.006434654351323843,0.06649811565876007,0.014267264865338802,0.00031897795270197093,1.5378700494766235
1781085639774714,px4_5,0.03699865937232971,-0.029937179759144783,0.074005126953125,0.043872758746147156,-0.05964822322130203,-0.0021256895270198584,0.04684564843773842,0.012354384176433086,0.15207704901695251,1.540771484375
1781085639798524,px4_4,0.04042597487568855,-0.04123169556260109,0.081298828125,0.048790838569402695,-0.05842021107673645,-0.002838929183781147,0.11548954248428345,-0.006351332180202007,-0.03275507688522339,1.5408000946044922
1781085639808360,px4_8,0.040424324572086334,-0.029357019811868668,0.071044921875,0.043363939970731735,-0.04157286509871483,-0.0078808618709445,0.057316362857818604,0.0584498755633831,-0.06316648423671722,1.5361380577087402
1781085639785993,px4_2,3.6111559867858887,-1.6819666624069214,-2.931640625,-0.9219423532485962,-3.2084624767303467,-0.0535273440182209,-1.4260004758834839,0.10159413516521454,-0.051512379199266434,0.0012794689973816276
1781085639795421,px4_7,0.02610352262854576,-0.02032366208732128,0.055999755859375,0.04398350417613983,-0.044258441776037216,-0.006806626915931702,0.06685607135295868,-0.10099277645349503,-0.0069332304410636425,1.537771224975586
1781085639798714,px4_5,0.0374574176967144,-0.03028830513358116,0.074066162109375,0.043023671954870224,-0.058022160083055496,-0.0024547188077121973,0.0054721892811357975,0.10153954476118088,-0.06380164623260498,1.5408024787902832
1781085639822524,px4_4,0.041007574647665024,-0.04171791300177574,0.08123779296875,0.048393867909908295,-0.05778544396162033,-0.002016513841226697,0.06562163680791855,0.05239252373576164,0.09104655683040619,1.5406605005264282
1781085639832360,px4_8,0.04069586098194122,-0.02954566478729248,0.070892333984375,0.043305739760398865,-0.043350011110305786,-0.008386621251702309,-0.025977328419685364,-0.12229835987091064,0.04599662125110626,1.5362821817398071
1781085639809993,px4_2,3.5912463665008545,-1.7569844722747803,-2.932281494140625,-0.9557062983512878,-3.2049896717071533,-0.05651375278830528,-1.424094796180725,0.11070697754621506,-0.07855984568595886,0.0014514088397845626
1781085639811421,px4_7,0.02634240873157978,-0.02050422877073288,0.055938720703125,0.04360758513212204,-0.04672243818640709,-0.007300950586795807,-0.015593846328556538,-0.20083600282669067,0.03194575756788254,1.537689447402954
1781085639814714,px4_5,0.03779391199350357,-0.030546903610229492,0.074066162109375,0.04258822649717331,-0.05691797658801079,-0.0029387534596025944,-0.014164920896291733,0.02968115732073784,-0.029607674106955528,1.54063081741333
1781085639838524,px4_4,0.041439447551965714,-0.04206613078713417,0.08123779296875,0.04858863353729248,-0.05679260566830635,-0.0021937068086117506,-0.026850774884223938,-0.002527838572859764,-0.024863051250576973,1.5408672094345093
1781085639848360,px4_8,0.04091162234544754,-0.029734045267105103,0.07080078125,0.043268103152513504,-0.044304754585027695,-0.008329495787620544,0.04618596285581589,-0.024160103872418404,0.010127666406333447,1.5362578630447388
1781085639825993,px4_2,3.57741379737854,-1.807063341140747,-2.932769775390625,-0.9760043025016785,-3.2023935317993164,-0.05726543068885803,-1.3024561405181885,0.1823004186153412,0.007087364327162504,0.0014050774043425918
1781085639827421,px4_7,0.026606259867548943,-0.020743168890476227,0.055877685546875,0.04318522289395332,-0.04716211184859276,-0.007720883935689926,-0.011620343662798405,-0.008439724333584309,-0.031917352229356766,1.5377508401870728
1781085639838714,px4_5,0.038334645330905914,-0.03097463585436344,0.0740966796875,0.04153171181678772,-0.05602889135479927,-0.0030239103361964226,-0.06192335858941078,-0.0587737038731575,-0.01259054895490408,1.5404820442199707
1781085639862524,px4_4,0.042123641818761826,-0.04265535622835159,0.081207275390625,0.04885149002075195,-0.05700217932462692,-0.0019703793805092573,0.059102192521095276,0.030293993651866913,0.02852827124297619,1.540629267692566
1781085639872360,px4_8,0.04132141172885895,-0.030111998319625854,0.0706787109375,0.04447144269943237,-0.04656160622835159,-0.007776276674121618,0.04563406854867935,-0.10041622072458267,-0.004410277586430311,1.5361131429672241
1781085639849993,px4_2,3.555863857269287,-1.8822121620178223,-2.93359375,-1.0078743696212769,-3.1946940422058105,-0.05831776559352875,-1.416968584060669,0.3052430748939514,-0.047200821340084076,0.0014261663891375065
1781085639851421,px4_7,0.02704077586531639,-0.02115672267973423,0.05572509765625,0.04243947193026543,-0.04756024852395058,-0.008561810478568077,-0.05440215766429901,-0.04446764662861824,0.015358439646661282,1.5375272035598755
1781085639854714,px4_5,0.03872166946530342,-0.031304363161325455,0.074127197265625,0.04225075989961624,-0.05567744001746178,-0.003298872383311391,0.02854480966925621,0.06055069714784622,-0.04383781552314758,1.5403571128845215
1781085639878810,px4_4,0.042614277452230453,-0.043081529438495636,0.081207275390625,0.04911907762289047,-0.05647910386323929,-0.0021961310412734747,0.06896904855966568,-0.016487032175064087,-0.020827630534768105,1.5405241250991821
1781085639888360,px4_8,0.04163457825779915,-0.03039989247918129,0.07061767578125,0.04335689917206764,-0.04514358937740326,-0.0067517622373998165,-0.07896525412797928,0.03603411465883255,0.04025827720761299,1.5361506938934326
1781085639865993,px4_2,3.5409440994262695,-1.9323089122772217,-2.9342041015625,-1.030423879623413,-3.188626766204834,-0.05940242484211922,-1.4360734224319458,0.45326969027519226,-0.04107365012168884,0.0014138617552816868
1781085639867421,px4_7,0.027346162125468254,-0.021463334560394287,0.055633544921875,0.04186549410223961,-0.04724723473191261,-0.009863652288913727,0.009045368060469627,-0.06498640775680542,-0.13402755558490753,1.5376766920089722
1781085639878714,px4_5,0.039348118007183075,-0.03181374445557594,0.074127197265625,0.041020143777132034,-0.05431641638278961,-0.004179423674941063,-0.04109194129705429,-0.02127603441476822,-0.08579296618700027,1.5404129028320312
1781085639902810,px4_4,0.043402597308158875,-0.043769512325525284,0.0811767578125,0.04981478303670883,-0.056527234613895416,-0.0017187948105856776,0.11205832660198212,-0.04645613580942154,0.07044057548046112,1.5406404733657837
1781085639912360,px4_8,0.04211944714188576,-0.030849365517497063,0.070556640625,0.0426933728158474,-0.044541776180267334,-0.00721770478412509,0.007681715302169323,-0.06854957342147827,-0.06710830330848694,1.5358777046203613
1781085639889993,px4_2,3.5177369117736816,-2.0073962211608887,-2.935150146484375,-1.063671350479126,-3.1793341636657715,-0.06364081054925919,-1.4645684957504272,0.3082793354988098,-0.21001741290092468,0.001334380591288209
1781085639891421,px4_7,0.02784213423728943,-0.02199292927980423,0.055511474609375,0.04161100089550018,-0.04852503165602684,-0.00965986680239439,0.05074489489197731,-0.03544841334223747,0.023392027243971825,1.5376557111740112
1781085639894714,px4_5,0.03979065269231796,-0.03218778595328331,0.074127197265625,0.04201405867934227,-0.05491351708769798,-0.005602822173386812,0.07874299585819244,-0.05903056263923645,-0.013445968739688396,1.5405640602111816
1781085639918810,px4_4,0.04345511645078659,-0.04361652582883835,0.081146240234375,0.05095983296632767,-0.056775979697704315,-4.547944263322279e-05,0.08254437893629074,-0.04159438982605934,0.12400233000516891,1.5404884815216064
1781085639928360,px4_8,0.04246850684285164,-0.03118484653532505,0.070526123046875,0.043071549385786057,-0.04464835673570633,-0.007096000015735626,0.02470148541033268,0.03488787263631821,-0.014541669748723507,1.5359753370285034
1781085639905993,px4_2,3.5017199516296387,-2.0574111938476562,-2.93585205078125,-1.0840504169464111,-3.171229124069214,-0.0641961544752121,-1.2730196714401245,0.535690188407898,-0.017578711733222008,0.001379159977659583
1781085639907421,px4_7,0.02820587158203125,-0.022385088726878166,0.055419921875,0.0416281633079052,-0.048458874225616455,-0.009622596204280853,0.04122783988714218,0.004828346893191338,0.008919741027057171,1.5378093719482422
1781085639918714,px4_5,0.039246272295713425,-0.031037019565701485,0.07421875,0.04269348829984665,-0.05354854837059975,-0.004725266247987747,0.0560208335518837,-0.030305704101920128,0.045536547899246216,1.5405998229980469
1781085639942810,px4_4,0.04288626089692116,-0.04253288358449936,0.081085205078125,0.0520147942006588,-0.055551860481500626,-9.917887655319646e-05,0.059405647218227386,0.036910951137542725,0.00463100103661418,1.5404932498931885
1781085639952360,px4_8,0.04305431991815567,-0.031729210168123245,0.070465087890625,0.04409610852599144,-0.04470854625105858,-0.0062862117774784565,0.08854866027832031,-0.004721466917544603,-0.002385116880759597,1.5361891984939575
1781085639929993,px4_2,3.4769561290740967,-2.132293939590454,-2.936920166015625,-1.1143115758895874,-3.1571662425994873,-0.06497498601675034,-1.3382138013839722,0.5808619856834412,-0.07124710083007812,0.0012034527026116848
1781085639931421,px4_7,0.02882991172373295,-0.0230063796043396,0.055267333984375,0.04389161989092827,-0.048254068940877914,-0.009706074371933937,0.06896808743476868,-0.03676609694957733,0.03859260678291321,1.5377472639083862
1781085639934714,px4_5,0.03897316753864288,-0.03037126362323761,0.07427978515625,0.043616414070129395,-0.05318429693579674,-0.00551867950707674,0.09142223000526428,0.045952923595905304,-0.014169606380164623,1.540499210357666
1781085639958810,px4_4,0.04259613901376724,-0.04190494492650032,0.081024169921875,0.051609452813863754,-0.05507533252239227,0.0007140401867218316,0.020560141652822495,-0.005154262762516737,0.09539629518985748,1.5406643152236938
1781085639968360,px4_8,0.0421779565513134,-0.03121352754533291,0.070404052734375,0.04371817409992218,-0.04366355016827583,-0.004554281942546368,0.02000446990132332,-4.2042298446176574e-05,0.10145454853773117,1.5362043380737305
1781085639945993,px4_2,3.4599409103393555,-2.182110548019409,-2.93768310546875,-1.1350853443145752,-3.148221492767334,-0.06614735722541809,-1.2879724502563477,0.5664688944816589,-0.10823970288038254,0.001190144452266395
1781085639947421,px4_7,0.028250159695744514,-0.022536981850862503,0.0550537109375,0.042593326419591904,-0.04894541576504707,-0.009820173494517803,-0.014787349849939346,-0.04436205327510834,-0.01708185113966465,1.5376585721969604
1781085639958714,px4_5,0.0386974923312664,-0.029478194192051888,0.074371337890625,0.043839532881975174,-0.05212871730327606,-0.0056578973308205605,-0.04747406393289566,-0.06460942327976227,0.007383059244602919,1.5405796766281128
1781085639982810,px4_4,0.04227607697248459,-0.0411086343228817,0.080963134765625,0.05111943185329437,-0.05510619655251503,-0.000393022783100605,-0.023061705753207207,-0.03893551975488663,-0.09996769577264786,1.540751338005066
1781085639992360,px4_8,0.04101648926734924,-0.0305582657456398,0.070343017578125,0.04345325380563736,-0.04506465047597885,-0.004367752466350794,0.037055760622024536,-0.11687985807657242,-0.030222812667489052,1.5362802743911743
1781085639969993,px4_2,3.433666944503784,-2.256660223007202,-2.93890380859375,-1.1662620306015015,-3.1328084468841553,-0.06882316619157791,-1.3558011054992676,0.7414636611938477,-0.08962954580783844,0.0009514819248579443
1781085639971421,px4_7,0.027471471577882767,-0.021943725645542145,0.0548095703125,0.040851060301065445,-0.048227496445178986,-0.008616115897893906,-0.029026616364717484,-0.02001255564391613,0.09406916052103043,1.5377408266067505
1781085639982714,px4_5,0.03853132948279381,-0.02874215506017208,0.074432373046875,0.04420115798711777,-0.05119914188981056,-0.005240346305072308,0.062114279717206955,-0.0033877857495099306,0.07745157182216644,1.5404599905014038
1781085639998810,px4_4,0.04212002828717232,-0.04066478833556175,0.080902099609375,0.050851672887802124,-0.05452746897935867,-0.00012662954395636916,0.02587595209479332,-0.02921866439282894,0.07249554246664047,1.540908932685852
1781085640008360,px4_8,0.040336448699235916,-0.03021675907075405,0.070281982421875,0.04301406070590019,-0.04588600993156433,-0.0028218976221978664,0.022719386965036392,-0.06641942262649536,0.12113618850708008,1.5363322496414185
1781085639993993,px4_2,3.4064629077911377,-2.3309326171875,-2.940155029296875,-1.198651909828186,-3.115715503692627,-0.06940404325723648,-1.3052910566329956,0.7441346049308777,-0.07196887582540512,0.0008975446689873934
1781085639995421,px4_7,0.026811346411705017,-0.021478785201907158,0.05462646484375,0.04016038775444031,-0.04830023646354675,-0.007359388750046492,0.04212185740470886,-0.01777305267751217,0.08072982728481293,1.5377063751220703
1781085639998714,px4_5,0.03849777579307556,-0.028334474191069603,0.07452392578125,0.04518987610936165,-0.05187248811125755,-0.004586881026625633,0.05811908841133118,-0.07143093645572662,0.03830995038151741,1.540292739868164
1781085640022810,px4_4,0.04197024554014206,-0.04012550041079521,0.080780029296875,0.05061158537864685,-0.05456039309501648,-0.0014229902299121022,0.0569358766078949,-0.0241033136844635,-0.07615330815315247,1.5409374237060547
1781085640032360,px4_8,0.039459288120269775,-0.02981765754520893,0.070220947265625,0.04373950883746147,-0.04672332853078842,-0.003584145801141858,0.09730980545282364,-0.11418677866458893,-0.05514081194996834,1.5365115404129028
1781085640009993,px4_2,3.3878333568573,-2.380275011062622,-2.9410400390625,-1.219146966934204,-3.1032469272613525,-0.07050258666276932,-1.2702540159225464,0.8164126873016357,-0.08755968511104584,0.0009461243753321469
1781085640011421,px4_7,0.026453930884599686,-0.0212323646992445,0.054534912109375,0.040461182594299316,-0.047366268932819366,-0.007391686085611582,0.014504351653158665,0.03352772444486618,-0.02017384208738804,1.5378410816192627
1781085640022714,px4_5,0.03855222091078758,-0.027848439291119576,0.07464599609375,0.04545293748378754,-0.05157129839062691,-0.004921416752040386,0.018610676750540733,0.03859128803014755,-0.05956412851810455,1.5401630401611328
1781085640038810,px4_4,0.041929394006729126,-0.039859380573034286,0.080657958984375,0.04996192455291748,-0.05518253147602081,-0.002031907672062516,0.004215307533740997,-0.047196220606565475,0.00021653248404618353,1.5408530235290527
1781085640048360,px4_8,0.03896130248904228,-0.02963453158736229,0.070159912109375,0.04215749353170395,-0.047182247042655945,-0.004550854675471783,-0.04953746497631073,-0.03984991833567619,-0.0701509341597557,1.5365773439407349
1781085640025993,px4_2,3.368828535079956,-2.4294588565826416,-2.94195556640625,-1.2392441034317017,-3.089871406555176,-0.0711374431848526,-1.3100568056106567,0.8574921488761902,-0.06044376268982887,0.000860954518429935
1781085640027421,px4_7,0.02614370919764042,-0.021025817841291428,0.054412841796875,0.03944607824087143,-0.04699183255434036,-0.007386159151792526,0.0008818678325042129,-0.033106595277786255,0.008333939127624035,1.537865400314331
1781085640042810,px4_3,0.050629712641239166,-0.04583178833127022,0.0704345703125,0.05319475755095482,-0.056142814457416534,-0.004646181594580412,0.008787988685071468,0.026479799300432205,-0.13173045217990875,1.5215699672698975
1781085640038714,px4_5,0.03864174708724022,-0.02759522572159767,0.07470703125,0.04533708095550537,-0.051989782601594925,-0.005731052253395319,0.01958441734313965,-0.05522093176841736,-0.0035534610506147146,1.540112018585205
1781085640062810,px4_4,0.04194370284676552,-0.03958714380860329,0.080474853515625,0.04930263012647629,-0.055583830922842026,-0.002786290133371949,-0.009706967510282993,-0.04617462307214737,-0.023304948583245277,1.5409505367279053
1781085640072360,px4_8,0.03829462081193924,-0.0294397734105587,0.07000732421875,0.04050080478191376,-0.04514772817492485,-0.0051354835741221905,0.009761879220604897,0.017694439738988876,-0.021350568160414696,1.5365610122680664
1781085640049993,px4_2,3.3396174907684326,-2.502897024154663,-2.943328857421875,-1.2691457271575928,-3.0672881603240967,-0.07273007929325104,-1.3259806632995605,1.0194224119186401,-0.07419008016586304,0.00075881602242589
1781085640051421,px4_7,0.02579023875296116,-0.02081252448260784,0.054229736328125,0.040489424020051956,-0.0466584637761116,-0.007517945487052202,0.027639171108603477,0.011868949979543686,-0.02716248668730259,1.5379496812820435
1781085640066810,px4_3,0.05126093700528145,-0.04648778215050697,0.0704345703125,0.052598558366298676,-0.05610127002000809,-0.0046362364664673805,0.012056464329361916,-0.007151969242841005,-0.008339527063071728,1.521362543106079
1781085640054714,px4_5,0.03876698017120361,-0.02739839255809784,0.07476806640625,0.04535441845655441,-0.05235246941447258,-0.0058606271632015705,0.0546269491314888,-0.14280067384243011,-0.02782745100557804,1.5399507284164429
1781085640078810,px4_4,0.04200155660510063,-0.03946924954652786,0.080352783203125,0.048739954829216,-0.054754991084337234,-0.0027707847766578197,-0.011055984534323215,-0.016163833439350128,-0.08952198177576065,1.5410338640213013
1781085640088360,px4_8,0.03791651874780655,-0.029356643557548523,0.06988525390625,0.040523845702409744,-0.04571803659200668,-0.004650779999792576,0.07309490442276001,-0.06085760146379471,0.09788758307695389,1.5364547967910767
1781085640065993,px4_2,3.319673776626587,-2.5515878200531006,-2.944305419921875,-1.2897703647613525,-3.0509116649627686,-0.07378093898296356,-1.3149704933166504,0.9868497252464294,-0.06532947719097137,0.0008353834855370224
1781085640067421,px4_7,0.025626009330153465,-0.02072327211499214,0.054107666015625,0.04114455357193947,-0.04739388823509216,-0.008907003328204155,0.08787262439727783,-0.07687651365995407,-0.11019454896450043,1.5380465984344482
1781085640082810,px4_3,0.05172381177544594,-0.04695473238825798,0.0704345703125,0.053215935826301575,-0.05628763884305954,-0.004204645287245512,0.04657159745693207,-0.05558856949210167,0.04296470060944557,1.5215232372283936
1781085640078714,px4_5,0.03902343660593033,-0.02722003683447838,0.0748291015625,0.04444938153028488,-0.051971837878227234,-0.00589385163038969,-0.04114203900098801,-0.0026778860483318567,0.012397765181958675,1.5398503541946411
1781085640102810,px4_4,0.04216446727514267,-0.03937544301152229,0.08013916015625,0.04879967123270035,-0.05349814146757126,-0.0032985981088131666,0.021074827760457993,0.08158930391073227,0.01587858237326145,1.5411665439605713
1781085640112360,px4_8,0.03745407983660698,-0.02931184694170952,0.069732666015625,0.03950469195842743,-0.044513385742902756,-0.005144972819834948,-0.031051987782120705,0.09567859768867493,-0.055281441658735275,1.5362991094589233
1781085640089993,px4_2,3.289041042327881,-2.6242153644561768,-2.94586181640625,-1.3217025995254517,-3.0257174968719482,-0.07585056871175766,-1.3167356252670288,1.1037461757659912,-0.12867803871631622,0.0005757009494118392
1781085640091421,px4_7,0.025472424924373627,-0.020680097863078117,0.0538330078125,0.04078781232237816,-0.0474252849817276,-0.010336730629205704,0.022034116089344025,-0.052739713340997696,-0.03028055466711521,1.5379583835601807
1781085640106810,px4_3,0.050656966865062714,-0.04637599736452103,0.070404052734375,0.052566856145858765,-0.05615196004509926,-0.003278847085312009,0.11216568946838379,-0.02123170718550682,0.004722736310213804,1.5213813781738281
1781085640094714,px4_5,0.03923164680600166,-0.027161598205566406,0.074859619140625,0.04541800916194916,-0.05225609987974167,-0.005712531507015228,0.08846865594387054,-0.023280654102563858,0.03465637192130089,1.5399911403656006
1781085640118810,px4_4,0.04232827574014664,-0.03936600312590599,0.08001708984375,0.048871878534555435,-0.05336045101284981,-0.003338263602927327,-0.03342990204691887,0.025561045855283737,0.011761206202208996,1.540993094444275
1781085640136360,px4_8,0.03710617497563362,-0.02934524044394493,0.069549560546875,0.0397106409072876,-0.04527157545089722,-0.00482796598225832,-0.020319361239671707,-0.013812781311571598,0.07040286064147949,1.5364055633544922
1781085640105993,px4_2,3.2695465087890625,-2.674595355987549,-2.946502685546875,-1.3414456844329834,-3.0100395679473877,-0.07746425271034241,-1.2762881517410278,1.0548871755599976,-0.10589788854122162,0.0006876043626107275
1781085640107421,px4_7,0.025425594300031662,-0.02070174552500248,0.05364990234375,0.04104820638895035,-0.047123830765485764,-0.009743744507431984,0.049484722316265106,-0.0007113439496606588,0.026401130482554436,1.5378779172897339
1781085640130810,px4_3,0.04891267046332359,-0.04530121013522148,0.07037353515625,0.051974840462207794,-0.05601765215396881,-0.0022264879662543535,-0.0425042062997818,-0.06872051954269409,0.13303616642951965,1.5213359594345093
1781085640118714,px4_5,0.03963527828454971,-0.027183042839169502,0.074951171875,0.04528714716434479,-0.053423844277858734,-0.0033351192250847816,-0.05033720284700394,-0.09293317794799805,0.18795672059059143,1.5401206016540527
1781085640142810,px4_4,0.04263301566243172,-0.03943868726491928,0.079833984375,0.048897743225097656,-0.0535564087331295,-0.0029330721590667963,0.05911446362733841,0.009350704029202461,-0.046500932425260544,1.541116714477539
1781085640152360,px4_8,0.03693322464823723,-0.029414447024464607,0.0694580078125,0.03958822786808014,-0.04498906433582306,-0.00518109742552042,0.052262626588344574,-0.00936133787035942,0.009730922989547253,1.5363285541534424
1781085640129993,px4_2,3.239513635635376,-2.749546527862549,-2.947540283203125,-1.3709349632263184,-2.984881639480591,-0.07959496229887009,-1.3164713382720947,1.092440128326416,-0.14404858648777008,0.0005729370168410242
1781085640131421,px4_7,0.025428077206015587,-0.020796818658709526,0.053375244140625,0.040118563920259476,-0.045831333845853806,-0.008817356079816818,-0.01974557340145111,0.11658837646245956,0.07579708099365234,1.5378623008728027
1781085640146810,px4_3,0.04787065088748932,-0.0447053536772728,0.07037353515625,0.05199788138270378,-0.057562924921512604,-0.0008454615017399192,0.07907434552907944,-0.13007503747940063,0.029657499864697456,1.5212030410766602
1781085640134714,px4_5,0.03994033485651016,-0.027270091697573662,0.075042724609375,0.0462573766708374,-0.05386725068092346,-0.0031622471287846565,0.09456442296504974,-0.07026612758636475,-0.06056623160839081,1.540023922920227
1781085640158810,px4_4,0.04288475215435028,-0.0395345501601696,0.0797119140625,0.04909617081284523,-0.0529702790081501,-0.0030937951523810625,0.03891849145293236,0.02105007879436016,0.018595250323414803,1.5409621000289917
1781085640176360,px4_8,0.0367482528090477,-0.029588904231786728,0.06927490234375,0.03797635808587074,-0.0461287721991539,-0.004742808174341917,-0.06946408748626709,-0.09886081516742706,-0.06150733307003975,1.536426067352295
1781085640145993,px4_2,3.2189650535583496,-2.799083948135376,-2.948333740234375,-1.3904249668121338,-2.9661061763763428,-0.08227114379405975,-1.2338026762008667,1.2612143754959106,-0.12880796194076538,0.0004805607022717595
1781085640147421,px4_7,0.025478720664978027,-0.020885616540908813,0.053192138671875,0.041028957813978195,-0.04575680196285248,-0.008873909711837769,0.03479650616645813,0.034600354731082916,0.008239409886300564,1.537968397140503
1781085640162810,px4_3,0.04692789539694786,-0.04419507086277008,0.070404052734375,0.05208979919552803,-0.05695728957653046,-0.0005034175701439381,0.10445048660039902,-0.01732490211725235,0.054319385439157486,1.5212554931640625
1781085640158714,px4_5,0.04046764597296715,-0.027478381991386414,0.07525634765625,0.04652312397956848,-0.05320127680897713,-0.0036989962682127953,0.05880792811512947,-0.03697720170021057,-0.025101469829678535,1.540230393409729
1781085640182810,px4_4,0.04333626478910446,-0.039745479822158813,0.07958984375,0.049826089292764664,-0.05271313339471817,-0.002637963742017746,0.04614276811480522,-0.0365721620619297,-0.06621190905570984,1.5407986640930176
1781085640192360,px4_8,0.036663968116045,-0.029759755358099937,0.06915283203125,0.03790820389986038,-0.04585745930671692,-0.005083594936877489,0.06390800327062607,0.02919692173600197,-0.04692002758383751,1.5365397930145264
1781085640169993,px4_2,3.1873903274536133,-2.872690200805664,-2.949615478515625,-1.419595718383789,-2.935321569442749,-0.08316145092248917,-1.2935261726379395,1.4317251443862915,-0.04606879875063896,0.0003181637148372829
1781085640171421,px4_7,0.025632701814174652,-0.021094143390655518,0.05291748046875,0.04262768104672432,-0.046733640134334564,-0.007622022647410631,0.11590109765529633,-0.07594176381826401,0.040452923625707626,1.5381379127502441
1781085640186810,px4_3,0.04569442942738533,-0.04357612878084183,0.070465087890625,0.05185851454734802,-0.057769402861595154,-0.00045086126192472875,0.034079208970069885,-0.0763189047574997,-0.007411464583128691,1.521204948425293
1781085640174714,px4_5,0.040874067693948746,-0.02766021341085434,0.075347900390625,0.04790443927049637,-0.05225689709186554,-0.004052740056067705,0.08174217492341995,0.09456851333379745,0.00796839501708746,1.5402356386184692
1781085640198810,px4_4,0.043693628162145615,-0.039944641292095184,0.079498291015625,0.05053894966840744,-0.05378788709640503,-0.0031247481238096952,0.01850992999970913,-0.1043606698513031,0.005314126145094633,1.5407500267028809
1781085640208360,px4_8,0.03663958981633186,-0.029957590624690056,0.069091796875,0.03860095143318176,-0.04532172530889511,-0.004543233662843704,0.060335930436849594,0.04287685826420784,0.056002285331487656,1.5366442203521729
1781085640185993,px4_2,3.165837049484253,-2.921269655227661,-2.95050048828125,-1.4385401010513306,-2.9146010875701904,-0.08388497680425644,-1.2226648330688477,1.3186821937561035,-0.04213861748576164,0.00024805040447972715
1781085640195421,px4_7,0.02590211108326912,-0.021403595805168152,0.052642822265625,0.043848514556884766,-0.047527577728033066,-0.008196314796805382,0.08439920097589493,0.0201282761991024,0.0029504296835511923,1.5380362272262573
1781085640202810,px4_3,0.044979728758335114,-0.04325244575738907,0.070526123046875,0.05207241326570511,-0.05732472240924835,-0.0005890495958738029,0.06542862206697464,0.016909068450331688,-0.034729015082120895,1.521193504333496
1781085640198714,px4_5,0.041552282869815826,-0.027994392439723015,0.07550048828125,0.04911676421761513,-0.052901871502399445,-0.005619903095066547,0.12632933259010315,-0.052033230662345886,-0.04982994496822357,1.5399867296218872
1781085640222810,px4_4,0.04428229108452797,-0.040331002324819565,0.079376220703125,0.05090233311057091,-0.05451129376888275,-0.00217727804556489,0.035919614136219025,-0.08304692804813385,-0.004454049747437239,1.5406450033187866
1781085640232360,px4_8,0.03669566288590431,-0.030290929600596428,0.069000244140625,0.03938499093055725,-0.04492858424782753,-0.005083708092570305,0.06537336856126785,-0.011896169744431973,0.021861864253878593,1.5367934703826904
1781085640209993,px4_2,3.132753849029541,-2.993426561355591,-2.951904296875,-1.4683676958084106,-2.882969617843628,-0.08598006516695023,-1.2340104579925537,1.4358460903167725,-0.1545259654521942,0.00010966315312543884
1781085640211421,px4_7,0.0261207465082407,-0.021635761484503746,0.05242919921875,0.04320097342133522,-0.047269903123378754,-0.008470467291772366,-0.08601545542478561,-0.010017814114689827,0.031054949387907982,1.5379741191864014
1781085640226810,px4_3,0.044042423367500305,-0.042875271290540695,0.070556640625,0.050534721463918686,-0.05787975341081619,-0.001194029115140438,0.009344828315079212,-0.07717867195606232,0.0749458521604538,1.5212863683700562
1781085640214714,px4_5,0.04205251857638359,-0.02826816961169243,0.075592041015625,0.048955246806144714,-0.05242941528558731,-0.006446478422731161,-0.04382055625319481,0.06079504266381264,-0.07006106525659561,1.5399757623672485
1781085640238810,px4_4,0.044712018221616745,-0.0406435951590538,0.079315185546875,0.05098778009414673,-0.05424295365810394,-0.0016460873885080218,0.02154242806136608,0.0194009467959404,0.018965916708111763,1.5406591892242432
1781085640248360,px4_8,0.03679584711790085,-0.03055129386484623,0.068939208984375,0.03980759158730507,-0.045336607843637466,-0.00507592037320137,-0.015309006907045841,-0.043544284999370575,0.04228949174284935,1.5367801189422607
1781085640225993,px4_2,3.110220432281494,-3.041032314300537,-2.952880859375,-1.4868335723876953,-2.860567808151245,-0.08816058933734894,-1.1762886047363281,1.4305953979492188,-0.12515251338481903,9.803697139432188e-06
1781085640227421,px4_7,0.026346899569034576,-0.02190251648426056,0.052276611328125,0.04183749482035637,-0.04782302305102348,-0.009313490241765976,-0.01311499997973442,-0.026014776900410652,-0.036772336810827255,1.5379971265792847
1781085640242810,px4_3,0.04350024089217186,-0.04271520674228668,0.070587158203125,0.05021184682846069,-0.05827471613883972,-0.0013585580745711923,0.008094022050499916,-0.036971285939216614,0.007830093614757061,1.5212395191192627
1781085640238714,px4_5,0.04284513369202614,-0.02873525768518448,0.07568359375,0.04998788982629776,-0.05299220234155655,-0.004908491857349873,0.061627764254808426,-0.0134572833776474,0.08697853982448578,1.5399926900863647
1781085640262810,px4_4,0.04541882872581482,-0.04117206856608391,0.07928466796875,0.05225908011198044,-0.053670626133680344,-0.0021346379071474075,0.0456424355506897,0.07084142416715622,0.03404635563492775,1.5407986640930176
1781085640272360,px4_8,0.03702494874596596,-0.03098711557686329,0.06884765625,0.04073792323470116,-0.04560335353016853,-0.004839709028601646,0.08040740340948105,-0.028542542830109596,0.01965043880045414,1.5367530584335327
1781085640249993,px4_2,3.075711965560913,-3.1116740703582764,-2.954437255859375,-1.516396164894104,-2.8248543739318848,-0.09001149237155914,-1.2746559381484985,1.5914031267166138,0.017682088539004326,5.114504892844707e-05
1781085640251421,px4_7,0.026740169152617455,-0.02238495647907257,0.052001953125,0.042295441031455994,-0.049862090498209,-0.009642808698117733,-0.00035597619717009366,-0.05713466927409172,0.07712142169475555,1.5377880334854126
1781085640266810,px4_3,0.042806435376405716,-0.04258129000663757,0.070648193359375,0.04946336895227432,-0.05767828971147537,0.0001745263725752011,0.020477497950196266,0.06717249006032944,0.018044838681817055,1.5213017463684082
1781085640254714,px4_5,0.04341612011194229,-0.029095420613884926,0.0758056640625,0.050988100469112396,-0.05379534512758255,-0.005576099269092083,0.09334136545658112,-0.07100236415863037,-0.08030980080366135,1.5401976108551025
1781085640278810,px4_4,0.045939669013023376,-0.04155096411705017,0.07928466796875,0.05320050194859505,-0.053595028817653656,-0.0007698381086811423,0.05727146938443184,-0.08798741549253464,0.0011152586666867137,1.54103422164917
1781085640288360,px4_8,0.03723948821425438,-0.03131336718797684,0.06878662109375,0.04189159348607063,-0.046123117208480835,-0.005072161089628935,0.057346317917108536,-0.025318939238786697,-0.052490733563899994,1.536848783493042
1781085640265993,px4_2,3.0522100925445557,-3.1581947803497314,-2.95550537109375,-1.5348628759384155,-2.7989718914031982,-0.09167787432670593,-1.1628295183181763,1.7088593244552612,-0.11887633800506592,4.527364581008442e-05
1781085640267421,px4_7,0.027041727676987648,-0.0227586068212986,0.051849365234375,0.04223336651921272,-0.050420910120010376,-0.009101876989006996,-0.0009445720352232456,-0.07351582497358322,0.009457114152610302,1.537813425064087
1781085640282810,px4_3,0.04242544248700142,-0.042535461485385895,0.0706787109375,0.05019291862845421,-0.056628379970788956,0.000936941709369421,0.026909038424491882,0.033713288605213165,0.07980642467737198,1.521209955215454
1781085640278714,px4_5,0.044299233704805374,-0.029696371406316757,0.075927734375,0.04853862524032593,-0.05304831638932228,-0.004635995253920555,-0.08684302121400833,0.01936626248061657,-0.001956242835149169,1.540140986442566
1781085640302810,px4_4,0.04678589105606079,-0.04216731712222099,0.079254150390625,0.05381608009338379,-0.05337114632129669,-0.002569778123870492,0.05749595910310745,-0.024054041132330894,-0.030053311958909035,1.5410981178283691
1781085640312360,px4_8,0.03763562813401222,-0.03187542408704758,0.068695068359375,0.04216163605451584,-0.04718099534511566,-0.005381980445235968,0.02355087548494339,0.046144869178533554,-0.0462694987654686,1.5368460416793823
1781085640289993,px4_2,3.0162770748138428,-3.2271225452423096,-2.957183837890625,-1.5630234479904175,-2.7594876289367676,-0.09186717867851257,-1.1600176095962524,1.7803874015808105,-0.025486571714282036,0.0001033505832310766
1781085640291421,px4_7,0.027546504512429237,-0.023368850350379944,0.051605224609375,0.04277053475379944,-0.05067088082432747,-0.008929619565606117,0.06634606420993805,0.01779225841164589,0.05657598003745079,1.5379106998443604
1781085640306810,px4_3,0.04198337346315384,-0.04254181683063507,0.07073974609375,0.05057888105511665,-0.05570608377456665,-0.0011143002193421125,0.028108369559049606,-0.004700793884694576,-0.11588632315397263,1.5211752653121948
1781085640294714,px4_5,0.044898197054862976,-0.030147595331072807,0.076019287109375,0.04898606985807419,-0.05529177188873291,-0.0052564507350325584,-0.028558822348713875,-0.11015775799751282,0.005748122464865446,1.5401859283447266
1781085640318810,px4_4,0.046773992478847504,-0.042012616991996765,0.079132080078125,0.0544271282851696,-0.05375654995441437,-0.0035405035596340895,0.02249341458082199,-0.03817713260650635,-0.05754455551505089,1.5410747528076172
1781085640328360,px4_8,0.037948306649923325,-0.0322728268802166,0.068603515625,0.0429898239672184,-0.0466875284910202,-0.0056827981024980545,0.04264102131128311,-0.023305580019950867,0.04907790198922157,1.5368576049804688
1781085640305993,px4_2,2.991870641708374,-3.272486686706543,-2.958343505859375,-1.5825884342193604,-2.7320079803466797,-0.09378666430711746,-1.2204909324645996,1.7650305032730103,-0.11445628106594086,-2.2690983314532787e-05
1781085640307421,px4_7,0.027928443625569344,-0.02379762940108776,0.05145263671875,0.042872946709394455,-0.049887947738170624,-0.0073836445808410645,-0.03622790053486824,0.01924174837768078,0.17426301538944244,1.537724494934082
1781085640322810,px4_3,0.04176951199769974,-0.04260162264108658,0.07073974609375,0.05077773332595825,-0.05616971477866173,-0.0010008391691371799,0.01626759022474289,-0.08329818397760391,-0.005209352355450392,1.5212395191192627
1781085640318714,px4_5,0.04443880543112755,-0.029506977647542953,0.07623291015625,0.04842928797006607,-0.05431831255555153,-0.003891732543706894,0.06083407998085022,0.05399566516280174,-0.013403593562543392,1.5402543544769287
1781085640342810,px4_4,0.045958518981933594,-0.04099893942475319,0.078826904296875,0.0545005276799202,-0.0527067631483078,-0.0019768422935158014,0.0980975478887558,-0.04542190581560135,0.03913184255361557,1.5410699844360352
1781085640352360,px4_8,0.038487523794174194,-0.03291238099336624,0.0684814453125,0.04424026608467102,-0.04716251790523529,-0.007283274549990892,0.052076347172260284,0.019248347729444504,-0.10160123556852341,1.5369676351547241
1781085640329993,px4_2,2.954601287841797,-3.3396267890930176,-2.96014404296875,-1.6091128587722778,-2.689077615737915,-0.09621449559926987,-1.133927345275879,1.8704099655151367,-0.02557039074599743,-0.00026558490935713053
1781085640331421,px4_7,0.02853533811867237,-0.024492226541042328,0.05126953125,0.0426921509206295,-0.05170588940382004,-0.007000680547207594,0.021984321996569633,-0.09729902446269989,-0.021343117579817772,1.5375258922576904
1781085640346810,px4_3,0.04154840484261513,-0.04277440160512924,0.07073974609375,0.050423141568899155,-0.05540822073817253,-0.001986699877306819,0.038825299590826035,-0.04963302984833717,-0.05587795376777649,1.5213087797164917
1781085640334714,px4_5,0.04421178251504898,-0.029151782393455505,0.076385498046875,0.04848211631178856,-0.05418677255511284,-0.0036804971750825644,0.004945809952914715,-0.05857561528682709,0.008741858415305614,1.540289282798767
1781085640366810,px4_4,0.04533357173204422,-0.04014632850885391,0.07861328125,0.055546265095472336,-0.05178895592689514,-0.002309726318344474,0.06880491226911545,0.004319814033806324,0.028391366824507713,1.5407904386520386
1781085640368360,px4_8,0.037884052842855453,-0.03233596682548523,0.068328857421875,0.04464191943407059,-0.04763206094503403,-0.007707785815000534,0.07677910476922989,-0.06019855663180351,-0.052867453545331955,1.5368965864181519
1781085640345993,px4_2,2.9293200969696045,-3.3837602138519287,-2.961395263671875,-1.6279730796813965,-2.659702777862549,-0.0970008447766304,-1.1995680332183838,1.918806791305542,-0.10819872468709946,-0.00035520733217708766
1781085640347421,px4_7,0.027778983116149902,-0.023613449186086655,0.0511474609375,0.04172738641500473,-0.050205688923597336,-0.006934479810297489,-0.07063613086938858,0.032748956233263016,0.05355197563767433,1.5375641584396362
1781085640362810,px4_3,0.0414607934653759,-0.04294293746352196,0.07073974609375,0.050191182643175125,-0.056067828088998795,-0.0028441098984330893,0.0986049622297287,-0.05580013990402222,-0.06244470924139023,1.5212600231170654
1781085640358714,px4_5,0.043970830738544464,-0.02873658761382103,0.076507568359375,0.04759844392538071,-0.05303478240966797,-0.0043167308904230595,-0.04978182166814804,-0.0009398017427884042,0.011051072739064693,1.5402581691741943
1781085640382810,px4_4,0.0450112484395504,-0.039672330021858215,0.0784912109375,0.05537855625152588,-0.052572689950466156,-0.00248267175629735,0.03436149284243584,-0.06014861539006233,-0.012072267942130566,1.5408488512039185
1781085640392360,px4_8,0.03712403029203415,-0.03161728382110596,0.068084716796875,0.044414229691028595,-0.047616805881261826,-0.007046676240861416,0.05189592018723488,0.020355980843305588,0.024074221029877663,1.5370519161224365
1781085640369993,px4_2,2.8907368183135986,-3.4490036964416504,-2.963348388671875,-1.6559538841247559,-2.614358425140381,-0.09926734864711761,-1.097764492034912,1.9808154106140137,-0.12129777669906616,-0.000565102556720376
1781085640371421,px4_7,0.026764562353491783,-0.022445209324359894,0.051055908203125,0.04099363461136818,-0.05019906163215637,-0.006945161148905754,0.00941050797700882,0.040569618344306946,-0.057888213545084,1.5375550985336304
1781085640386810,px4_3,0.041414905339479446,-0.04328831285238266,0.07073974609375,0.04839863255620003,-0.05610568821430206,-0.0030210516415536404,-0.10764084756374359,0.015077926218509674,-0.037649642676115036,1.5211986303329468
1781085640374714,px4_5,0.043857574462890625,-0.028528504073619843,0.07659912109375,0.04687163233757019,-0.05341670289635658,-0.0037281406112015247,0.030333152040839195,-0.06069161742925644,0.019869299605488777,1.540320873260498
1781085640398810,px4_4,0.04474852606654167,-0.03928058221936226,0.078338623046875,0.05457266792654991,-0.05327541008591652,-0.002823782851919532,-0.002999295014888048,-0.06691007316112518,-0.06049172580242157,1.5408446788787842
1781085640408360,px4_8,0.03671083226799965,-0.031208461150527,0.068023681640625,0.04561738297343254,-0.047042056918144226,-0.007210647687315941,0.14881815016269684,-0.007534502539783716,-0.021883750334382057,1.537009596824646
1781085640385993,px4_2,2.8646068572998047,-3.4918456077575684,-2.964630126953125,-1.672555685043335,-2.5834121704101562,-0.0997883602976799,-1.0249227285385132,1.9999706745147705,0.0025890765246003866,-0.0005932148778811097
1781085640387421,px4_7,0.02617168053984642,-0.021761350333690643,0.051025390625,0.03998458757996559,-0.0498993881046772,-0.006732736714184284,-0.06570406258106232,-0.03477410972118378,0.06553623080253601,1.5375217199325562
1781085640402810,px4_3,0.041423577815294266,-0.043565306812524796,0.07073974609375,0.04799497500061989,-0.056517697870731354,-0.0023876826744526625,-0.006263409275561571,-0.05738534405827522,0.04004500433802605,1.5211384296417236
1781085640398714,px4_5,0.04378966614603996,-0.028319429606199265,0.076751708984375,0.04690349102020264,-0.05278077721595764,-0.003817381104454398,-0.0722677931189537,-0.0023848204873502254,-0.0024409962352365255,1.5401833057403564
1781085640422810,px4_4,0.044442325830459595,-0.03882700949907303,0.078155517578125,0.05351833254098892,-0.05347086116671562,-0.0035032732412219048,0.07893697172403336,-0.054595306515693665,-0.05399295687675476,1.5408954620361328
1781085640432360,px4_8,0.03625081479549408,-0.03069807030260563,0.06787109375,0.04654813930392265,-0.048044390976428986,-0.00817851722240448,-0.0012266027042642236,-0.14045457541942596,-0.0953311026096344,1.5368444919586182
1781085640409993,px4_2,2.8247928619384766,-3.555097818374634,-2.966644287109375,-1.701273798942566,-2.534700393676758,-0.10312728583812714,-1.1855000257492065,2.0794870853424072,-0.15484075248241425,-0.0009387790341861546
1781085640411421,px4_7,0.02538073994219303,-0.020874962210655212,0.050994873046875,0.03850482776761055,-0.05000951886177063,-0.007566685322672129,-0.009526967070996761,-0.05442061647772789,-0.036702487617731094,1.537286400794983
1781085640426810,px4_3,0.04150472208857536,-0.044073015451431274,0.07073974609375,0.047891393303871155,-0.05804260075092316,-0.003848905209451914,0.06383127719163895,-0.06945518404245377,-0.022074205800890923,1.5213353633880615
1781085640414714,px4_5,0.04379763454198837,-0.028237035498023033,0.07684326171875,0.047460004687309265,-0.05143793672323227,-0.00282156839966774,0.09297271817922592,0.0947742909193039,0.05546630918979645,1.5401365756988525
1781085640438810,px4_4,0.04430048540234566,-0.0386086031794548,0.078033447265625,0.052502986043691635,-0.05322159081697464,-0.003984332084655762,-0.10291803628206253,-0.019033493474125862,-0.04282733052968979,1.5409613847732544
1781085640448360,px4_8,0.03601678088307381,-0.030464008450508118,0.067779541015625,0.045852553099393845,-0.04980476200580597,-0.008091820403933525,-0.01639256440103054,-0.07600358128547668,-0.02188514731824398,1.5369142293930054
1781085640425993,px4_2,2.7978365421295166,-3.5965800285339355,-2.968048095703125,-1.71819269657135,-2.5020291805267334,-0.10427649319171906,-1.086256742477417,2.119488477706909,-0.10321195423603058,-0.001129968324676156
1781085640427421,px4_7,0.024918386712670326,-0.020374001935124397,0.050933837890625,0.0386384017765522,-0.05000666528940201,-0.007971539162099361,0.07784975320100784,-0.05913912504911423,-0.0037895513232797384,1.5371346473693848
1781085640442810,px4_3,0.04162305220961571,-0.04446037486195564,0.07073974609375,0.048833347856998444,-0.057490941137075424,-0.0036542436573654413,0.057954706251621246,0.015600739978253841,0.06459233909845352,1.521285057067871
1781085640438714,px4_5,0.04389423877000809,-0.028176460415124893,0.076995849609375,0.046720944344997406,-0.05091837793588638,-0.0029652081429958344,0.014522170647978783,-0.02057013288140297,-0.006574671249836683,1.5403250455856323
1781085640462810,px4_4,0.04415299370884895,-0.03837195783853531,0.077850341796875,0.05197098106145859,-0.05199820175766945,-0.005519090685993433,0.0649159625172615,0.031706951558589935,-0.06780772656202316,1.5408751964569092
1781085640472360,px4_8,0.035751402378082275,-0.030203012749552727,0.067596435546875,0.045162804424762726,-0.049585435539484024,-0.009316046722233295,0.0421658493578434,-0.05635233223438263,-0.05455920100212097,1.5367261171340942
1781085640449993,px4_2,2.756805896759033,-3.657729387283325,-2.970245361328125,-1.7451509237289429,-2.44980788230896,-0.10637941211462021,-1.142551302909851,2.2077138423919678,-0.0993441715836525,-0.0013811774551868439
1781085640451421,px4_7,0.02435331419110298,-0.019753066822886467,0.050872802734375,0.038571350276470184,-0.05093662068247795,-0.0075343698263168335,-0.06446699798107147,-0.10875602811574936,0.04327995330095291,1.5373115539550781
1781085640466810,px4_3,0.04187541827559471,-0.0450967513024807,0.0706787109375,0.04805131256580353,-0.05760938674211502,-0.0022911163978278637,0.007682086434215307,-0.06062041223049164,0.0665285587310791,1.5213067531585693
1781085640454714,px4_5,0.04398723691701889,-0.028191452845931053,0.07708740234375,0.046971309930086136,-0.05030078440904617,-0.002661466598510742,0.003052114974707365,0.10405194014310837,0.040360722690820694,1.54009211063385
1781085640478810,px4_4,0.04412026330828667,-0.03825943171977997,0.07763671875,0.0522017627954483,-0.05064999684691429,-0.006285524927079678,0.054416511207818985,0.044106289744377136,-0.030715947970747948,1.5409586429595947
1781085640488360,px4_8,0.03562384471297264,-0.030093951150774956,0.067474365234375,0.043878525495529175,-0.04890148341655731,-0.009428613819181919,-0.0567590594291687,0.07764704525470734,-0.030053777620196342,1.5366945266723633
1781085640465993,px4_2,2.7290515899658203,-3.6977646350860596,-2.97174072265625,-1.7623220682144165,-2.4157872200012207,-0.10781221836805344,-1.02336585521698,2.104470729827881,-0.079964280128479,-0.0014504282735288143
1781085640475421,px4_7,0.023916499689221382,-0.019304372370243073,0.050811767578125,0.03930269181728363,-0.052693452686071396,-0.00772569514811039,0.03485976904630661,-0.13719412684440613,-0.13617286086082458,1.5373371839523315
1781085640482810,px4_3,0.04208716005086899,-0.04558127373456955,0.0706787109375,0.047520995140075684,-0.05876695737242699,-0.0018292784225195646,-0.08677440881729126,-0.07866744697093964,0.05538807809352875,1.521309494972229
1781085640478714,px4_5,0.0442027784883976,-0.028273962438106537,0.07720947265625,0.04698679596185684,-0.04964696988463402,-0.003013080917298794,-0.01926255039870739,0.010281207971274853,-0.02254033274948597,1.5400468111038208
1781085640502810,px4_4,0.04415776580572128,-0.038169629871845245,0.077392578125,0.051394060254096985,-0.050704002380371094,-0.005104482639580965,-0.02999730221927166,-0.03564554452896118,-0.020415054634213448,1.5409643650054932
1781085640512360,px4_8,0.03549235314130783,-0.030020521953701973,0.067291259765625,0.04295487701892853,-0.05015590786933899,-0.010489449836313725,0.002206721343100071,-0.08707132190465927,-0.009675509296357632,1.5368283987045288
1781085640489993,px4_2,2.686828136444092,-3.756730079650879,-2.97406005859375,-1.7898967266082764,-2.363487958908081,-0.10865028202533722,-1.1790549755096436,2.255999803543091,-0.014628282748162746,-0.0016522653168067336
1781085640491421,px4_7,0.02370055951178074,-0.01909499801695347,0.050750732421875,0.039821431040763855,-0.05329592898488045,-0.007353932596743107,0.008064175955951214,-0.022448131814599037,0.032935287803411484,1.5372567176818848
1781085640506810,px4_3,0.04136192798614502,-0.04511016979813576,0.07049560546875,0.04751182347536087,-0.05907769128680229,-0.0042321402579545975,0.12577272951602936,-0.0961746796965599,-0.1483699232339859,1.5212652683258057
1781085640502714,px4_5,0.044515460729599,-0.028451573103666306,0.077362060546875,0.048752713948488235,-0.050339262932538986,-0.0010970738949254155,0.09399105608463287,-0.037200942635536194,0.1400490254163742,1.5399973392486572
1781085640518810,px4_4,0.04422379657626152,-0.03816916048526764,0.07720947265625,0.0509788952767849,-0.051149047911167145,-0.006022936198860407,-0.024031566455960274,-0.07328078895807266,-0.03981589898467064,1.5409960746765137
1781085640528360,px4_8,0.03545805811882019,-0.03003847226500511,0.067169189453125,0.04284466803073883,-0.050250645726919174,-0.010339190252125263,-0.020265614613890648,-0.01972271502017975,-0.005732755642384291,1.5368385314941406
1781085640505993,px4_2,2.6591665744781494,-3.79988169670105,-2.9752197265625,-1.807975172996521,-2.329571008682251,-0.11016380786895752,-1.1243623495101929,2.3429975509643555,-0.12577930092811584,-0.001770044444128871
1781085640507421,px4_7,0.023520106449723244,-0.01893792115151882,0.050689697265625,0.03848589211702347,-0.05330599471926689,-0.007033304311335087,-0.010617833584547043,0.012012523598968983,0.0027515923138707876,1.537097692489624
1781085640522810,px4_3,0.040615104138851166,-0.04447094351053238,0.0703125,0.04664821922779083,-0.058003030717372894,-0.0036757190246134996,-0.03107193484902382,0.04568595439195633,0.058908477425575256,1.5213489532470703
1781085640518714,px4_5,0.0447857528924942,-0.028623463585972786,0.077484130859375,0.04995838180184364,-0.050249937921762466,-0.0007349097868427634,0.1174546554684639,-0.01470905914902687,0.005791894625872374,1.539959192276001
1781085640542810,px4_4,0.04438985884189606,-0.038272518664598465,0.07696533203125,0.05157909542322159,-0.05161232873797417,-0.004299602005630732,0.15899106860160828,0.0003096101572737098,0.11089909076690674,1.5410617589950562
1781085640552360,px4_8,0.03550179675221443,-0.03013085573911667,0.066986083984375,0.044630344957113266,-0.04948543384671211,-0.010662752203643322,0.10804667323827744,-0.03995392471551895,-0.01652352325618267,1.5369449853897095
1781085640529993,px4_2,2.6170175075531006,-3.8631365299224854,-2.977020263671875,-1.8328843116760254,-2.2782132625579834,-0.11263588815927505,-1.0203367471694946,2.334052562713623,-0.15260139107704163,-0.002160369185730815
1781085640531421,px4_7,0.02333185262978077,-0.01877855509519577,0.05059814453125,0.03915100544691086,-0.05235029384493828,-0.007128915283828974,0.06759218871593475,-0.002860954264178872,0.07150740921497345,1.53700590133667
1781085640546810,px4_3,0.0396171472966671,-0.043626733124256134,0.070068359375,0.04505012556910515,-0.056358452886343,-0.0031772570218890905,-0.002284763380885124,-0.022088950499892235,-0.034135762602090836,1.5212558507919312
1781085640534714,px4_5,0.04510168358683586,-0.028828036040067673,0.077606201171875,0.050460781902074814,-0.049886882305145264,-0.0006863452726975083,0.03952968493103981,0.005698226857930422,0.019012482836842537,1.5400044918060303
1781085640566810,px4_4,0.04467879235744476,-0.038481298834085464,0.0767822265625,0.05168252810835838,-0.05277131125330925,-0.0036972747184336185,-0.01038417313247919,-0.11320961266756058,-0.03279372677206993,1.5409247875213623
1781085640568360,px4_8,0.03560316190123558,-0.030242186039686203,0.066864013671875,0.044307641685009,-0.05041090026497841,-0.010283282026648521,-0.07116375118494034,-0.11631867289543152,0.007753259968012571,1.5368432998657227
1781085640545993,px4_2,2.5885121822357178,-3.9043281078338623,-2.97833251953125,-1.8489230871200562,-2.242583990097046,-0.11367396265268326,-1.0391290187835693,2.4324300289154053,-0.040535811334848404,-0.002230788115411997
1781085640547421,px4_7,0.02326939068734646,-0.018731314688920975,0.050537109375,0.039602670818567276,-0.05292981117963791,-0.005660547874867916,0.07453430444002151,-0.08793052285909653,0.08711730688810349,1.5369057655334473
1781085640562810,px4_3,0.03903777152299881,-0.04315551742911339,0.069915771484375,0.04551281780004501,-0.055858779698610306,-0.002968020271509886,0.07190098613500595,0.03581403195858002,0.006676651071757078,1.521315097808838
1781085640558714,px4_5,0.04563882574439049,-0.029197776690125465,0.0777587890625,0.050587769597768784,-0.05012604594230652,0.00029006932163611054,0.015655120834708214,-0.044232625514268875,-0.016233881935477257,1.5401129722595215
1781085640582810,px4_4,0.04491325095295906,-0.03867150843143463,0.076690673828125,0.052824702113866806,-0.051357630640268326,-0.0029251305386424065,0.07986321300268173,0.08974114060401917,0.024462582543492317,1.54095458984375
1781085640592360,px4_8,0.03580506891012192,-0.030497554689645767,0.06671142578125,0.04313857480883598,-0.05031242594122887,-0.009906958788633347,-0.03949660062789917,0.03991102799773216,0.019158700481057167,1.5368112325668335
1781085640569993,px4_2,2.545137643814087,-3.964651584625244,-2.980316162109375,-1.8744343519210815,-2.1886937618255615,-0.1143656075000763,-1.096314787864685,2.4562766551971436,-0.014042015187442303,-0.0023287776857614517
1781085640571421,px4_7,0.02326991595327854,-0.018766749650239944,0.050445556640625,0.040218938142061234,-0.052916791290044785,-0.004649513866752386,0.06146782636642456,0.04460670426487923,-0.013576353900134563,1.5369021892547607
1781085640586810,px4_3,0.03831659257411957,-0.042560383677482605,0.0697021484375,0.04573702812194824,-0.05467606335878372,-0.0028819486033171415,-0.03265239670872688,-0.021368147805333138,0.01644948311150074,1.5211904048919678
1781085640574714,px4_5,0.0460335835814476,-0.029492702335119247,0.077850341796875,0.05019673705101013,-0.05026144161820412,-0.001128892065025866,-0.017778605222702026,0.004838764201849699,-0.060294751077890396,1.5402626991271973
1781085640598810,px4_4,0.04519300535321236,-0.038889870047569275,0.076568603515625,0.052593279629945755,-0.05177474766969681,-0.0031995989847928286,-0.011855673976242542,-0.05253571644425392,0.009575392119586468,1.5410174131393433
1781085640616360,px4_8,0.03606504574418068,-0.030826665461063385,0.06671142578125,0.04234398156404495,-0.05079863592982292,-0.008478166535496712,-0.0025395709089934826,-0.06207888945937157,0.042926982045173645,1.5368809700012207
1781085640585993,px4_2,2.515822649002075,-4.0038862228393555,-2.981658935546875,-1.8895134925842285,-2.150801658630371,-0.11428111046552658,-0.9782634973526001,2.555725574493408,-0.02897111512720585,-0.0023784616496413946
1781085640587421,px4_7,0.023328647017478943,-0.018845008686184883,0.05035400390625,0.04094574227929115,-0.05357601121068001,-0.004399433732032776,0.08374889194965363,-0.016885297372937202,0.0334056057035923,1.5369232892990112
1781085640598714,px4_5,0.046634115278720856,-0.030000165104866028,0.077911376953125,0.049969956278800964,-0.050591904670000076,-0.001026683021336794,-0.0037441931199282408,-0.0677780732512474,-0.06752832978963852,1.5404616594314575
1781085640610810,px4_3,0.037748392671346664,-0.04212092235684395,0.06951904296875,0.04618733376264572,-0.055325571447610855,-0.0015379865653812885,0.04526425898075104,0.00495670922100544,0.01840386353433132,1.5212578773498535
1781085640622810,px4_4,0.04567495733499527,-0.03930039703845978,0.076507568359375,0.05251701921224594,-0.052531901746988297,-0.00352162541821599,0.005788151174783707,-0.07288902252912521,-0.07355398684740067,1.5407421588897705
1781085640632360,px4_8,0.036281783133745193,-0.031098417937755585,0.066680908203125,0.04314381256699562,-0.050530336797237396,-0.007662423420697451,0.08441402018070221,0.0229817982763052,0.018538905307650566,1.5369608402252197
1781085640609993,px4_2,2.4712657928466797,-4.061254978179932,-2.983734130859375,-1.9135030508041382,-2.0933635234832764,-0.1165248453617096,-0.9617545008659363,2.6012327671051025,-0.07819290459156036,-0.0024196624290198088
1781085640611421,px4_7,0.023482047021389008,-0.019040148705244064,0.050262451171875,0.0397195965051651,-0.053786300122737885,-0.0042160809971392155,-0.030486442148685455,-0.08665025979280472,-0.06946268677711487,1.5369919538497925
1781085640626810,px4_3,0.03745453059673309,-0.041906651109457016,0.069427490234375,0.046558838337659836,-0.05485484004020691,-0.001459841732867062,0.028528256341814995,0.02674851380288601,-0.014692544005811214,1.5213876962661743
1781085640614714,px4_5,0.047056540846824646,-0.03038698062300682,0.07794189453125,0.050304241478443146,-0.051054444164037704,-0.0021907761693000793,0.040136951953172684,-0.058890365064144135,-0.07400940358638763,1.5404131412506104
1781085640638810,px4_4,0.04604353383183479,-0.039618778973817825,0.076446533203125,0.05296138674020767,-0.05178460478782654,-0.003682793118059635,0.05627207085490227,0.07543869316577911,0.036028675734996796,1.5406031608581543
1781085640648360,px4_8,0.03653767704963684,-0.03139772638678551,0.066680908203125,0.042479611933231354,-0.04986964911222458,-0.00784505158662796,-0.07176164537668228,0.023195989429950714,-0.005206558387726545,1.5370208024978638
1781085640625993,px4_2,2.4411728382110596,-4.0985002517700195,-2.985137939453125,-1.9294016361236572,-2.053016424179077,-0.11685681343078613,-1.0355453491210938,2.6670804023742676,-0.09217391908168793,-0.0024937076959758997
1781085640627421,px4_7,0.02361995354294777,-0.019233588129281998,0.050201416015625,0.03988710418343544,-0.054188430309295654,-0.004446897190064192,0.011643147096037865,0.026235999539494514,-0.10231881588697433,1.537052035331726
1781085640642810,px4_3,0.037214554846286774,-0.041737187653779984,0.0693359375,0.04678855836391449,-0.054315198212862015,-0.0013515661703422666,0.03280949592590332,-0.030881311744451523,-0.023019498214125633,1.5213940143585205
1781085640638714,px4_5,0.047733381390571594,-0.031041216105222702,0.07794189453125,0.049642544239759445,-0.05196865275502205,-0.0024993130937218666,-0.02009635418653488,-0.047627855092287064,-0.014468560926616192,1.5403159856796265
1781085640662810,px4_4,0.046677689999341965,-0.04012787714600563,0.076385498046875,0.05340384691953659,-0.05142778903245926,-0.00470303650945425,0.0008049100288189948,0.028464101254940033,-0.03626197203993797,1.5405675172805786
1781085640672360,px4_8,0.03695472329854965,-0.03190191462635994,0.066619873046875,0.04365669935941696,-0.05024484544992447,-0.007639171555638313,0.07543696463108063,0.0560426227748394,-0.041997987776994705,1.5370854139328003
1781085640649993,px4_2,2.395467519760132,-4.1528801918029785,-2.987335205078125,-1.952333688735962,-1.9939460754394531,-0.11691122502088547,-0.9158311486244202,2.627509593963623,0.04070484638214111,-0.0024251453578472137
1781085640651421,px4_7,0.02387501671910286,-0.019601009786128998,0.05010986328125,0.03979308158159256,-0.055439241230487823,-0.004530764650553465,0.06859900802373886,-0.07296047359704971,0.037359535694122314,1.5369294881820679
1781085640666810,px4_3,0.036961253732442856,-0.041568823158741,0.0692138671875,0.04624765366315842,-0.05317261815071106,-0.0010612040059641004,-0.0489082969725132,-0.035188183188438416,0.03122864104807377,1.5214539766311646
1781085640654714,px4_5,0.04821080341935158,-0.03152287006378174,0.077911376953125,0.04935230687260628,-0.05230531096458435,-0.0028652602341026068,-0.025727303698658943,0.0313439667224884,0.04437798261642456,1.5405278205871582
1781085640678810,px4_4,0.04713143780827522,-0.04050164297223091,0.076324462890625,0.052963484078645706,-0.05167277157306671,-0.0049267965368926525,0.022658759728074074,-0.041122470051050186,-0.04733167216181755,1.5403859615325928
1781085640688360,px4_8,0.03728572651743889,-0.03227021172642708,0.06658935546875,0.044037654995918274,-0.050491441041231155,-0.008330767042934895,0.04444973170757294,-0.06483305990695953,-0.061112917959690094,1.5371443033218384
1781085640665993,px4_2,2.3646280765533447,-4.188145160675049,-2.988800048828125,-1.9693517684936523,-1.9531536102294922,-0.11580020189285278,-1.089401125907898,2.6595499515533447,0.0545368492603302,-0.002283918671309948
1781085640667421,px4_7,0.024088390171527863,-0.01990344002842903,0.050018310546875,0.04008856788277626,-0.05576859787106514,-0.00463406415656209,0.016676640138030052,-0.06173965334892273,9.732320177135989e-05,1.536826252937317
1781085640682810,px4_3,0.03684721514582634,-0.04151948168873787,0.069122314453125,0.045708298683166504,-0.0530434213578701,-0.0003296773647889495,0.03995729610323906,-0.030830122530460358,0.04587927460670471,1.5216326713562012
1781085640678714,px4_5,0.04896572604775429,-0.03227439895272255,0.077850341796875,0.049325745552778244,-0.051993947476148605,-0.003765147179365158,0.02161419205367565,-0.019611483439803123,-0.02986052818596363,1.540603756904602
1781085640702810,px4_4,0.04786951094865799,-0.041119229048490524,0.07623291015625,0.05322720482945442,-0.05172893777489662,-0.004149522166699171,-0.035558562725782394,-0.027460208162665367,0.05922140181064606,1.540562391281128
1781085640712360,px4_8,0.037849899381399155,-0.03288586065173149,0.06646728515625,0.04448780044913292,-0.05102285370230675,-0.01035241037607193,0.011382503435015678,0.016329322010278702,-0.05491776019334793,1.537122368812561
1781085640689993,px4_2,2.3178322315216064,-4.239568710327148,-2.99102783203125,-1.9905258417129517,-1.8927226066589355,-0.11583346128463745,-0.8525354266166687,2.6853857040405273,-0.05988543480634689,-0.0022335380781441927
1781085640691421,px4_7,0.024482790380716324,-0.020431948825716972,0.049896240234375,0.04119259491562843,-0.05606008321046829,-0.005061508622020483,0.013022602535784245,0.03269512951374054,0.014424788765609264,1.5368857383728027
1781085640706810,px4_3,0.036779772490262985,-0.04154927656054497,0.069000244140625,0.04564419761300087,-0.053914379328489304,-0.0003688833094201982,-0.005445533897727728,-0.032261475920677185,-0.04917056858539581,1.521550178527832
1781085640694714,px4_5,0.04949850216507912,-0.03279867395758629,0.07781982421875,0.04963727667927742,-0.05152679979801178,-0.0036507570184767246,0.05456432327628136,-0.014362686313688755,0.0005946494056843221,1.5406630039215088
1781085640718810,px4_4,0.047485142946243286,-0.040933601558208466,0.076171875,0.05282612517476082,-0.05191654711961746,-0.0035979554522782564,0.04384483024477959,-0.05639477074146271,-0.009470618329942226,1.5404411554336548
1781085640728360,px4_8,0.03826097026467323,-0.03332948684692383,0.06634521484375,0.044716522097587585,-0.05133019760251045,-0.010183899663388729,0.026047945022583008,-0.004879747983068228,0.05002598837018013,1.5370820760726929
1781085640705993,px4_2,2.2863192558288574,-4.272851943969727,-2.9925537109375,-2.0053017139434814,-1.8501065969467163,-0.11723218113183975,-0.943985104560852,2.756754159927368,-0.062467060983181,-0.002201999304816127
1781085640707421,px4_7,0.024791957810521126,-0.020831691101193428,0.049774169921875,0.0415661558508873,-0.0569298081099987,-0.005141837056726217,0.014823824167251587,-0.06134127452969551,0.023410188034176826,1.536784291267395
1781085640722810,px4_3,0.036793943494558334,-0.04163261875510216,0.068939208984375,0.04638795182108879,-0.05385385826230049,-0.0009853614028543234,0.09716559946537018,-0.019818682223558426,-0.02957647480070591,1.5217539072036743
1781085640718714,px4_5,0.04831220209598541,-0.03195624426007271,0.07763671875,0.04853477329015732,-0.051163870841264725,-0.0027492691297084093,0.030396267771720886,-0.07305436581373215,0.04375818744301796,1.5404502153396606
1781085640742810,px4_4,0.04573798179626465,-0.03983725607395172,0.076019287109375,0.053041353821754456,-0.05144200846552849,-0.0032373510766774416,0.02537602186203003,-0.05151787027716637,0.03585032746195793,1.540367603302002
1781085640752360,px4_8,0.03893338888883591,-0.034042730927467346,0.066192626953125,0.04464707523584366,-0.05125373974442482,-0.009609402157366276,-0.04784707352519035,0.06374259293079376,0.035888977348804474,1.537009596824646
1781085640729993,px4_2,2.238506555557251,-4.321244239807129,-2.994873046875,-2.029020309448242,-1.7849159240722656,-0.11569226533174515,-0.9600107669830322,2.8403823375701904,-0.0050170342437922955,-0.0021732868626713753
1781085640731421,px4_7,0.025318032130599022,-0.021518651396036148,0.049591064453125,0.042575351893901825,-0.058662254363298416,-0.005587143357843161,0.03722488880157471,-0.05807880312204361,0.030322464182972908,1.5369404554367065
1781085640746810,px4_3,0.0369182825088501,-0.04183213412761688,0.06878662109375,0.04756621643900871,-0.05366956815123558,-0.000630014983471483,0.1379433274269104,-0.05179796367883682,-0.02437550388276577,1.5217771530151367
1781085640734714,px4_5,0.047618888318538666,-0.03147750347852707,0.0775146484375,0.048544444143772125,-0.0506763681769371,-0.0035716318525373936,0.09475237876176834,-0.013148513622581959,-0.06401864439249039,1.5406086444854736
1781085640758810,px4_4,0.0446963831782341,-0.039219871163368225,0.075958251953125,0.052684467285871506,-0.05302412435412407,-0.0012707527494058013,0.10060133039951324,-0.17178529500961304,0.05135871097445488,1.5402714014053345
1781085640768360,px4_8,0.0387750118970871,-0.03344864025712013,0.06610107421875,0.04506469890475273,-0.05018703266978264,-0.009084808640182018,0.1162324771285057,-0.0636850968003273,-0.014609656296670437,1.5371373891830444
1781085640745993,px4_2,2.2062923908233643,-4.35248327255249,-2.996429443359375,-2.042858362197876,-1.741931676864624,-0.1152033805847168,-0.8594301342964172,2.7566633224487305,-0.0037378629203885794,-0.0021116347052156925
1781085640747421,px4_7,0.02476033754646778,-0.020772583782672882,0.049560546875,0.041593313217163086,-0.058744706213474274,-0.004979976452887058,0.009209750220179558,-0.06867330521345139,0.06582680344581604,1.5368015766143799
1781085640762810,px4_3,0.0370662696659565,-0.04201836511492729,0.0687255859375,0.047611307352781296,-0.0532192699611187,-0.001632061554118991,0.02163214050233364,0.022876661270856857,-0.014196149073541164,1.52175772190094
1781085640758714,px4_5,0.046727005392313004,-0.0308564230799675,0.077362060546875,0.04816017672419548,-0.04938029497861862,-0.002560668159276247,0.04777348041534424,0.011275600641965866,0.06224680319428444,1.540401816368103
1781085640782810,px4_4,0.04332078620791435,-0.0384586937725544,0.075897216796875,0.052765000611543655,-0.0528235137462616,-0.0005140964058227837,0.07306501269340515,-0.07277777791023254,0.0685797929763794,1.5402824878692627
1781085640792360,px4_8,0.03865734860301018,-0.032666292041540146,0.06597900390625,0.045962657779455185,-0.04977179691195488,-0.008017058484256268,0.09952548891305923,0.017252791672945023,0.07143104076385498,1.5372271537780762
1781085640769993,px4_2,2.1574747562408447,-4.3978376388549805,-2.998748779296875,-2.0659077167510986,-1.6777023077011108,-0.1131313368678093,-1.0086795091629028,2.7921767234802246,0.05487026274204254,-0.0021296327468007803
1781085640771421,px4_7,0.024020040407776833,-0.01979987695813179,0.04949951171875,0.042038753628730774,-0.05849577486515045,-0.005306847393512726,0.08631551265716553,-0.03837553784251213,-0.016833653673529625,1.5365232229232788
1781085640786810,px4_3,0.037341441959142685,-0.0423637256026268,0.068603515625,0.046526215970516205,-0.05313815549015999,-0.00045130890794098377,-0.07285623997449875,-0.060728441923856735,0.035713888704776764,1.5217148065567017
1781085640774714,px4_5,0.046226534992456436,-0.03051443211734295,0.0772705078125,0.048532191663980484,-0.04929213970899582,-0.003318044124171138,0.08672495931386948,-0.04395093023777008,-0.08101062476634979,1.5403121709823608
1781085640798810,px4_4,0.04252295941114426,-0.03804177790880203,0.075897216796875,0.05255679786205292,-0.05327058210968971,-0.000735639245249331,0.028375966474413872,-0.07797180861234665,-0.0038407740648835897,1.5402871370315552
1781085640808360,px4_8,0.038662347942590714,-0.03223386034369469,0.065887451171875,0.04680398851633072,-0.0505472794175148,-0.008166814222931862,0.027120519429445267,-0.09288789331912994,-0.06258533895015717,1.5373618602752686
1781085640785993,px4_2,2.124586820602417,-4.427061557769775,-3.00030517578125,-2.0801804065704346,-1.6332019567489624,-0.11244770884513855,-0.8741632103919983,2.87884259223938,-0.008815432898700237,-0.0022760946303606033
1781085640787421,px4_7,0.023617228493094444,-0.01923833042383194,0.049468994140625,0.0422292985022068,-0.05724950507283211,-0.005292470566928387,0.04736248776316643,0.057170651853084564,0.025128943845629692,1.5366953611373901
1781085640802810,px4_3,0.03755816072225571,-0.04264163598418236,0.06854248046875,0.04676654934883118,-0.052894558757543564,0.00018436617392580956,0.08443503081798553,-0.007914242334663868,0.05828216299414635,1.5217269659042358
1781085640798714,px4_5,0.04560786113142967,-0.03013211488723755,0.0771484375,0.04799947142601013,-0.0501289889216423,-0.002694762544706464,0.036555755883455276,-0.03712531179189682,0.07030646502971649,1.5402411222457886
1781085640822810,px4_4,0.04148603975772858,-0.037549182772636414,0.075897216796875,0.05253700539469719,-0.052484143525362015,-0.001371668535284698,0.0227968730032444,0.05591399222612381,-0.08123321086168289,1.5402436256408691
1781085640832360,px4_8,0.03878307715058327,-0.031716540455818176,0.065765380859375,0.048143189400434494,-0.05008834972977638,-0.008674887008965015,0.0386495478451252,0.012493696995079517,-0.06293272227048874,1.5371603965759277
1781085640809993,px4_2,2.0747714042663574,-4.469333648681641,-3.002655029296875,-2.101818561553955,-1.5642664432525635,-0.11372619867324829,-0.8884322047233582,2.931612014770508,-0.0417930968105793,-0.0024081349838525057
1781085640811421,px4_7,0.02314329333603382,-0.018508179113268852,0.049407958984375,0.04345029219985008,-0.05677498131990433,-0.004505051299929619,0.09209086745977402,-0.05686991289258003,0.0521060973405838,1.5367556810379028
1781085640826810,px4_3,0.03797914832830429,-0.043137144297361374,0.0684814453125,0.04822121560573578,-0.053491562604904175,0.0011940384283661842,0.05636032670736313,0.0067911772057414055,-0.004853121470659971,1.5217024087905884
1781085640814714,px4_5,0.04527322202920914,-0.02995128370821476,0.077056884765625,0.04825379326939583,-0.05060650780797005,-0.0023885187692940235,-0.009191112592816353,-0.078741155564785,0.025152692571282387,1.5401506423950195
1781085640838810,px4_4,0.040884047746658325,-0.03729187324643135,0.07586669921875,0.05132836475968361,-0.05337441340088844,-0.0018913614330813289,-0.015393393114209175,-0.10568392276763916,0.023558733984827995,1.5403611660003662
1781085640848360,px4_8,0.03890799358487129,-0.03143532946705818,0.065673828125,0.046171627938747406,-0.05024934187531471,-0.008937493897974491,-0.12645889818668365,-0.07261667400598526,-0.06718001514673233,1.5371854305267334
1781085640825993,px4_2,2.041249990463257,-4.496469497680664,-3.0042724609375,-2.1152453422546387,-1.5180771350860596,-0.11361206322908401,-0.8606139421463013,2.966116428375244,0.02994108758866787,-0.0023910249583423138
1781085640827421,px4_7,0.022905539721250534,-0.018101973459124565,0.049407958984375,0.04331747442483902,-0.05578107014298439,-0.0053430721163749695,0.06207125633955002,-0.013943948782980442,-0.05126744136214256,1.5367149114608765
1781085640842810,px4_3,0.03831230476498604,-0.043499983847141266,0.0684814453125,0.04906090721487999,-0.05249539017677307,0.0013101910008117557,0.10909612476825714,0.04974992573261261,0.02740928716957569,1.5216609239578247
1781085640838714,px4_5,0.04488207772374153,-0.02977614477276802,0.07696533203125,0.04874884709715843,-0.050034236162900925,-0.0027748215943574905,0.090889573097229,-0.053205255419015884,-0.03666244074702263,1.540291666984558
1781085640862810,px4_4,0.040100015699863434,-0.037034351378679276,0.07586669921875,0.05079790577292442,-0.05358576774597168,-0.001613245694898069,-0.0027803797274827957,0.025177637115120888,0.026543622836470604,1.5403525829315186
1781085640872360,px4_8,0.039135850965976715,-0.031116347759962082,0.0655517578125,0.04646182805299759,-0.051654137670993805,-0.010121036320924759,0.07531030476093292,-0.1844741255044937,-0.030925029888749123,1.5371651649475098
1781085640849993,px4_2,1.9905234575271606,-4.535630226135254,-3.006744384765625,-2.1359498500823975,-1.4494112730026245,-0.11171576380729675,-0.8426706194877625,2.922893762588501,0.06376485526561737,-0.0023442928213626146
1781085640851421,px4_7,0.022635679692029953,-0.017619861289858818,0.049407958984375,0.04203566163778305,-0.056166891008615494,-0.005629476625472307,0.009088790975511074,-0.02029963955283165,0.015016178600490093,1.5364620685577393
1781085640866810,px4_3,0.038895558565855026,-0.04409414157271385,0.0684814453125,0.04965199530124664,-0.05323037505149841,0.0019220602698624134,0.014091404154896736,-0.0863470733165741,0.10784900933504105,1.52180814743042
1781085640854714,px4_5,0.044700704514980316,-0.029712669551372528,0.07696533203125,0.04910752549767494,-0.0486735962331295,-0.0017844093963503838,0.050467755645513535,0.0952737033367157,0.13856728374958038,1.5403779745101929
1781085640878810,px4_4,0.039651960134506226,-0.03693179041147232,0.075836181640625,0.05000252276659012,-0.05389346554875374,-0.00022347345657180995,-0.05920805782079697,-0.043933626264333725,0.07197818905115128,1.5404024124145508
1781085640888360,px4_8,0.03934147581458092,-0.030990993604063988,0.065460205078125,0.046363405883312225,-0.05184172838926315,-0.009003018029034138,0.0183852706104517,-0.021608401089906693,0.05945795774459839,1.5369476079940796
1781085640865993,px4_2,1.9564034938812256,-4.560702800750732,-3.00836181640625,-2.1498000621795654,-1.4030656814575195,-0.11005734652280807,-0.8638004064559937,2.954122543334961,0.12431199848651886,-0.002274004276841879
1781085640867421,px4_7,0.02250916138291359,-0.017363836988806725,0.049407958984375,0.04185635223984718,-0.05560632050037384,-0.005439512897282839,-0.005573514383286238,-0.0665026381611824,0.04409439489245415,1.5365409851074219
1781085640882810,px4_3,0.039314381778240204,-0.04453863576054573,0.068511962890625,0.049120523035526276,-0.05266343057155609,0.0016079206252470613,-0.04528782144188881,0.04053569585084915,-0.035785600543022156,1.521885871887207
1781085640878714,px4_5,0.04454096406698227,-0.02967929095029831,0.07696533203125,0.049650002270936966,-0.04865286499261856,-0.002549812663346529,0.006380381528288126,0.0018841854762285948,-0.14081130921840668,1.5406180620193481
1781085640902810,px4_4,0.03910646215081215,-0.03685350716114044,0.07586669921875,0.05100056156516075,-0.052231259644031525,0.0008245733333751559,0.03304632380604744,0.0009171125711873174,0.08781160414218903,1.5402896404266357
1781085640912360,px4_8,0.03971274942159653,-0.03090551495552063,0.065338134765625,0.046320460736751556,-0.05249844864010811,-0.009157638996839523,0.06280997395515442,-0.04207320138812065,-0.0021876764949411154,1.5371040105819702
1781085640889993,px4_2,1.9047622680664062,-4.596760272979736,-3.01080322265625,-2.170982599258423,-1.333109974861145,-0.10813077539205551,-0.8707343935966492,3.044857978820801,0.04590069502592087,-0.0025105513632297516
1781085640891421,px4_7,0.022396421059966087,-0.017100786790251732,0.049407958984375,0.04215356707572937,-0.05534735321998596,-0.006213778629899025,0.11869119852781296,0.06314544379711151,-0.0480445995926857,1.536563754081726
1781085640906810,px4_3,0.038838475942611694,-0.04400582239031792,0.068450927734375,0.04821429029107094,-0.05231436342000961,0.0022992154117673635,-0.05405907705426216,0.008036014623939991,0.006607733201235533,1.5221006870269775
1781085640894714,px4_5,0.044495828449726105,-0.029700759798288345,0.076934814453125,0.05015905573964119,-0.04862838611006737,-0.003206029301509261,0.08536210656166077,-0.04915374889969826,-0.05051865801215172,1.5406217575073242
1781085640918810,px4_4,0.0388299897313118,-0.03684812784194946,0.07586669921875,0.05134435370564461,-0.05126810818910599,-0.0011674186680465937,0.04902064800262451,0.053404681384563446,-0.14918668568134308,1.5402809381484985
1781085640928360,px4_8,0.040026549249887466,-0.03089115209877491,0.065277099609375,0.04724770039319992,-0.051512543112039566,-0.008521168492734432,0.07260190695524216,0.05596939101815224,0.020221805199980736,1.5370852947235107
1781085640905993,px4_2,1.870300054550171,-4.625429630279541,-3.01202392578125,-2.184011220932007,-1.2902698516845703,-0.10749391466379166,-0.8591609597206116,2.8811635971069336,0.02070283330976963,-0.002687136409804225
1781085640915421,px4_7,0.022384507581591606,-0.016920115798711777,0.049407958984375,0.042150940746068954,-0.05314089357852936,-0.00693672988563776,0.08535914123058319,0.07978486269712448,-0.060474496334791183,1.5363150835037231
1781085640922810,px4_3,0.038213811814785004,-0.04332372546195984,0.068389892578125,0.047678522765636444,-0.052345603704452515,0.0018116123974323273,0.025333624333143234,-0.025194495916366577,0.006806570570915937,1.5221444368362427
1781085640918714,px4_5,0.04453207179903984,-0.02982957847416401,0.076873779296875,0.05036185309290886,-0.048514291644096375,-0.0027641088236123323,0.0016905759694054723,0.043459441512823105,0.12986454367637634,1.5405665636062622
1781085640942810,px4_4,0.038525935262441635,-0.036918606609106064,0.075836181640625,0.051257479935884476,-0.051878973841667175,-0.0016271373024210334,-0.022954175248742104,-0.06586896628141403,-0.04630209505558014,1.5403552055358887
1781085640952360,px4_8,0.04055505990982056,-0.03093438409268856,0.065185546875,0.04655938595533371,-0.05209274962544441,-0.006530450191348791,0.01823326200246811,-0.14495383203029633,0.029392538592219353,1.5367381572723389
1781085640929993,px4_2,1.8181350231170654,-4.6664628982543945,-3.013916015625,-2.2039225101470947,-1.2230689525604248,-0.10572332888841629,-0.8269174098968506,3.062129259109497,0.11251633614301682,-0.0029390454292297363
1781085640931421,px4_7,0.022445106878876686,-0.016835158690810204,0.04937744140625,0.04336059093475342,-0.05255694314837456,-0.007267539855092764,0.06147495657205582,-0.02526337467133999,0.01636519841849804,1.5363134145736694
1781085640946810,px4_3,0.0374128483235836,-0.04242056608200073,0.06829833984375,0.046809498220682144,-0.04981681704521179,0.0027328834403306246,-0.012918734923005104,0.03467468544840813,0.11359201371669769,1.5221072435379028
1781085640934714,px4_5,0.04461556300520897,-0.02995784766972065,0.07684326171875,0.05130051076412201,-0.04845685139298439,-0.0023323283530771732,0.11626068502664566,-0.03206200525164604,0.013483221642673016,1.540531873703003
1781085640958810,px4_4,0.03838684782385826,-0.037018533796072006,0.0758056640625,0.05114274471998215,-0.05077384039759636,-0.0020930024329572916,0.03931909427046776,0.047311823815107346,-0.018854623660445213,1.5403915643692017
1781085640968360,px4_8,0.04094373807311058,-0.031033450737595558,0.06512451171875,0.046892888844013214,-0.052101485431194305,-0.007045960519462824,0.039103686809539795,0.051543090492486954,-0.045476943254470825,1.5367300510406494
1781085640945993,px4_2,1.7830655574798584,-4.6925177574157715,-3.015167236328125,-2.2158031463623047,-1.1791250705718994,-0.10449711233377457,-0.7358734011650085,2.9197137355804443,0.03169383481144905,-0.002894212258979678
1781085640947421,px4_7,0.022550292313098907,-0.016808174550533295,0.04937744140625,0.043611351400613785,-0.05378399044275284,-0.006742342375218868,0.07148754596710205,-0.08804631233215332,0.04342244565486908,1.53632390499115
1781085640962810,px4_3,0.03695603832602501,-0.04189467057585716,0.068267822265625,0.046232614666223526,-0.04964163154363632,0.0037507941015064716,-0.018705369904637337,-0.025295862928032875,0.004605389665812254,1.5221627950668335
1781085640958714,px4_5,0.04484408721327782,-0.030216116458177567,0.07684326171875,0.05224895477294922,-0.0484086275100708,-0.0025321703869849443,0.005560243036597967,-0.057633571326732635,0.02364395000040531,1.5402863025665283
1781085640982810,px4_4,0.03826950863003731,-0.037248652428388596,0.075775146484375,0.050752244889736176,-0.052021536976099014,-0.0032096111681312323,0.055594298988580704,-0.08474909514188766,-0.01862039603292942,1.5403549671173096
1781085640992360,px4_8,0.04156974330544472,-0.031244173645973206,0.065032958984375,0.046324219554662704,-0.05284416675567627,-0.006148900371044874,0.05026201158761978,-0.12479376792907715,0.019709577783942223,1.5367416143417358
1781085640969993,px4_2,1.7300161123275757,-4.729686737060547,-3.017059326171875,-2.2359366416931152,-1.110540747642517,-0.10179263353347778,-0.7783700227737427,3.0894486904144287,0.06969784945249557,-0.003012663684785366
1781085640971421,px4_7,0.02279490977525711,-0.016860486939549446,0.049346923828125,0.04409303888678551,-0.05496911332011223,-0.006009597796946764,0.020099151879549026,-0.084922194480896,-0.05969637632369995,1.536332368850708
1781085640986810,px4_3,0.03638578951358795,-0.041244544088840485,0.0682373046875,0.04563935473561287,-0.049409132450819016,0.003265859792008996,-0.009375416673719883,0.047003988176584244,-0.04795239865779877,1.5221803188323975
1781085640982714,px4_5,0.04516763240098953,-0.030576638877391815,0.07684326171875,0.0520474947988987,-0.05012509971857071,-0.002694208873435855,0.00492325471714139,-0.10790469497442245,-0.022614838555455208,1.5403738021850586
1781085640998810,px4_4,0.03824738413095474,-0.03746313974261284,0.075714111328125,0.049576904624700546,-0.051902562379837036,-0.0034233261831104755,-0.076969675719738,0.009670848958194256,-0.06063840910792351,1.540321707725525
1781085641008360,px4_8,0.04202296584844589,-0.031437162309885025,0.065093994140625,0.04639745131134987,-0.05236738547682762,-0.006907174829393625,0.0172507856041193,-0.01819436624646187,-0.04106945917010307,1.5367099046707153
1781085640985993,px4_2,1.694361686706543,-4.7531609535217285,-3.018341064453125,-2.2487995624542236,-1.063632845878601,-0.10182492434978485,-0.7862064242362976,3.1086061000823975,-0.04802550747990608,-0.003237573429942131
1781085640995421,px4_7,0.023115763440728188,-0.017017031088471413,0.04925537109375,0.04330301657319069,-0.05397237464785576,-0.006084614433348179,-0.03318953514099121,0.02508232370018959,-0.02450123243033886,1.5362859964370728
1781085641002810,px4_3,0.03607688471674919,-0.04087674617767334,0.068267822265625,0.045286502689123154,-0.04774084314703941,0.0038429650012403727,-0.005423651076853275,0.09074569493532181,0.083778977394104,1.5223008394241333
1781085640998714,px4_5,0.04541870579123497,-0.030875718221068382,0.07684326171875,0.0509629026055336,-0.050507139414548874,-0.0032056323252618313,-0.05253243073821068,-0.04324023425579071,0.02817157469689846,1.5403093099594116
1781085641022810,px4_4,0.038273610174655914,-0.037843890488147736,0.07568359375,0.04854569584131241,-0.0524156391620636,-0.0028745720628648996,-0.013107978738844395,-0.0700182169675827,0.011254101060330868,1.5402429103851318
1781085641032360,px4_8,0.04273781552910805,-0.031794317066669464,0.06512451171875,0.045182034373283386,-0.05290056765079498,-0.0069000571966171265,-0.10250017046928406,-0.055932771414518356,0.0038854775484651327,1.536479115486145
1781085641009993,px4_2,1.6404638290405273,-4.786466121673584,-3.02032470703125,-2.266735315322876,-0.9927145838737488,-0.10265253484249115,-0.7400455474853516,3.117286443710327,-0.09526032209396362,-0.0031545849051326513
1781085641011421,px4_7,0.023364907130599022,-0.017169766128063202,0.049224853515625,0.04340241104364395,-0.05417494848370552,-0.00563035486266017,-0.002024273155257106,0.005963294301182032,0.08965841680765152,1.536391258239746
1781085641026810,px4_3,0.0357048362493515,-0.04042758792638779,0.06829833984375,0.04452049359679222,-0.048404939472675323,0.003041856223717332,0.019386040046811104,-0.03921620920300484,-0.03453995659947395,1.5222339630126953
1781085641014714,px4_5,0.04569569230079651,-0.031211867928504944,0.07684326171875,0.05149385705590248,-0.050953369587659836,-0.0038677293341606855,0.1174612045288086,-0.05595434457063675,-0.05723349377512932,1.5404052734375
1781085641038810,px4_4,0.038340236991643906,-0.03816128522157669,0.07568359375,0.048328470438718796,-0.053564801812171936,-0.0043333242647349834,0.017754746600985527,-0.08905524015426636,-0.0801207423210144,1.5403845310211182
1781085641048360,px4_8,0.04322993755340576,-0.032083526253700256,0.065155029296875,0.04506302624940872,-0.053235046565532684,-0.007553017698228359,0.007525529712438583,-0.019106488674879074,-0.04842923581600189,1.536375880241394
1781085641025993,px4_2,1.6042523384094238,-4.807422637939453,-3.02166748046875,-2.279327392578125,-0.9459992051124573,-0.10135913640260696,-0.7142612934112549,3.146301746368408,0.03528594598174095,-0.002997243544086814
1781085641027421,px4_7,0.02364996261894703,-0.017351195216178894,0.049163818359375,0.044035520404577255,-0.053312063217163086,-0.006105962209403515,0.04468914121389389,-0.008568056859076023,-0.037177927792072296,1.5365238189697266
1781085641042810,px4_3,0.035523951053619385,-0.040194589644670486,0.068328857421875,0.04463883861899376,-0.04702720046043396,0.0039039987605065107,0.015780404210090637,0.04341024160385132,0.01570768468081951,1.5222012996673584
1781085641038714,px4_5,0.04615064710378647,-0.03179088607430458,0.07684326171875,0.04962857812643051,-0.05056895315647125,-0.004720655269920826,-0.050385262817144394,0.0007213574717752635,-0.00579887954518199,1.540432095527649
1781085641062810,px4_4,0.038539912551641464,-0.03871209919452667,0.07562255859375,0.04961460083723068,-0.053254712373018265,-0.0038874780293554068,0.04731064662337303,-0.024025432765483856,0.07283034920692444,1.540389895439148
1781085641072360,px4_8,0.044038597494363785,-0.032597433775663376,0.065155029296875,0.046763479709625244,-0.0543072447180748,-0.007471777964383364,0.0385785736143589,-0.09104577451944351,-0.03311503306031227,1.536387324333191
1781085641049993,px4_2,1.5495343208312988,-4.836984634399414,-3.023681640625,-2.2970457077026367,-0.8728209137916565,-0.09901413321495056,-0.714922308921814,3.235901355743408,0.16605480015277863,-0.002802949631586671
1781085641051421,px4_7,0.024119362235069275,-0.017673084512352943,0.049102783203125,0.043249450623989105,-0.05163247510790825,-0.006321483291685581,0.05999244377017021,0.0566563606262207,-0.03752763941884041,1.5366261005401611
1781085641066810,px4_3,0.035332050174474716,-0.03992508724331856,0.068328857421875,0.043037645518779755,-0.046745821833610535,0.0034352357033640146,-0.014835447072982788,-0.03384590148925781,-0.04390254244208336,1.522120714187622
1781085641054714,px4_5,0.04648521542549133,-0.032202787697315216,0.076812744140625,0.050099197775125504,-0.04961058497428894,-0.005816010758280754,0.024662965908646584,0.06430871039628983,-0.060661692172288895,1.5403636693954468
1781085641078810,px4_4,0.03871864080429077,-0.03911125659942627,0.0755615234375,0.04874330013990402,-0.053135450929403305,-0.002963424427434802,-0.015358952805399895,-0.048351600766181946,0.06290710717439651,1.5403807163238525
1781085641088360,px4_8,0.04461444914340973,-0.03299865499138832,0.065155029296875,0.047162238508462906,-0.055623043328523636,-0.006361297331750393,0.1255597472190857,-0.0820237249135971,0.09262095391750336,1.5364638566970825
1781085641065993,px4_2,1.512803554534912,-4.855444431304932,-3.0250244140625,-2.3082940578460693,-0.824306845664978,-0.09862570464611053,-0.7536260485649109,3.2479660511016846,-0.0732489824295044,-0.002844135044142604
1781085641067421,px4_7,0.024467619135975838,-0.017911765724420547,0.049041748046875,0.04414648562669754,-0.051721006631851196,-0.005624770652502775,0.09980257600545883,-0.029094092547893524,0.0007320194854401052,1.5365544557571411
1781085641082810,px4_3,0.03525238111615181,-0.0398152656853199,0.068328857421875,0.043447788804769516,-0.04615858569741249,0.002782611409202218,0.11183758825063705,0.05957286059856415,-0.014457850717008114,1.522156000137329
1781085641078714,px4_5,0.04705708846449852,-0.03284589946269989,0.07666015625,0.050440896302461624,-0.049240585416555405,-0.005416306667029858,-0.027656663209199905,-0.03797348961234093,0.08429213613271713,1.5403989553451538
1781085641102810,px4_4,0.039042532444000244,-0.03978142887353897,0.075531005859375,0.04805242642760277,-0.05464969947934151,-0.0024781611282378435,-0.061365604400634766,-0.08402812480926514,0.00637350557371974,1.5404108762741089
1781085641112360,px4_8,0.04553581774234772,-0.03369671106338501,0.065155029296875,0.04835296422243118,-0.058178868144750595,-0.007179299369454384,0.11218541115522385,-0.1167919933795929,0.012172850780189037,1.5364805459976196
1781085641089993,px4_2,1.4572943449020386,-4.881285190582275,-3.02703857421875,-2.327883720397949,-0.7517094612121582,-0.09964339435100555,-0.7973592281341553,3.152280330657959,-0.07397541403770447,-0.002619336824864149
1781085641091421,px4_7,0.02505076862871647,-0.018348049372434616,0.048919677734375,0.044347766786813736,-0.05335637554526329,-0.0045250412076711655,0.03157133236527443,-0.100830078125,0.057182736694812775,1.5367214679718018
1781085641106810,px4_3,0.03523540869355202,-0.03974425047636032,0.06829833984375,0.04358582943677902,-0.0477399118244648,0.0021349650342017412,-0.0006321133114397526,-0.11451905965805054,0.01670047454535961,1.5222017765045166
1781085641094714,px4_5,0.04746558144688606,-0.03330373018980026,0.07659912109375,0.050005290657281876,-0.049627989530563354,-0.005574910901486874,-0.005633569788187742,-0.09157251566648483,-0.09931343793869019,1.5404115915298462
1781085641118810,px4_4,0.03871570900082588,-0.039566297084093094,0.075592041015625,0.04809410497546196,-0.054582320153713226,-0.0039643896743655205,0.0950007438659668,-0.06122138723731041,-0.09460141509771347,1.5403518676757812
1781085641128360,px4_8,0.04618353769183159,-0.03421942889690399,0.06512451171875,0.04752418026328087,-0.058778248727321625,-0.0066060698591172695,-0.10448015481233597,-0.07443158328533173,0.035999804735183716,1.536324381828308
1781085641105993,px4_2,1.4200106859207153,-4.897283554077148,-3.0284423828125,-2.339773178100586,-0.701034426689148,-0.09841310232877731,-0.6828264594078064,3.299588680267334,0.08956947922706604,-0.002492222236469388
1781085641115421,px4_7,0.025692136958241463,-0.018884729593992233,0.048797607421875,0.04473493993282318,-0.05416601523756981,-0.004952546674758196,0.037072207778692245,-0.0628107413649559,-0.06307381391525269,1.5369418859481812
1781085641122810,px4_3,0.03527442365884781,-0.03977710008621216,0.068267822265625,0.0432959608733654,-0.0484076626598835,0.0017394132446497679,-0.004746478050947189,-0.027846183627843857,-0.030591150745749474,1.5222257375717163
1781085641118714,px4_5,0.046103622764348984,-0.032700348645448685,0.076446533203125,0.0479714497923851,-0.05011877790093422,-0.005780444014817476,-0.0453253872692585,-0.06612400710582733,0.04382803663611412,1.5405282974243164
1781085641142810,px4_4,0.03751719743013382,-0.038327448070049286,0.075775146484375,0.04749169200658798,-0.05307384580373764,-0.003691041609272361,0.02081586979329586,0.07281788438558578,0.0488329641520977,1.5404237508773804
1781085641152360,px4_8,0.047163225710392,-0.03503477945923805,0.06512451171875,0.04804343730211258,-0.05813310667872429,-0.007235041353851557,0.04137186333537102,-0.01738118566572666,-0.022264661267399788,1.5362107753753662
1781085641129993,px4_2,1.3636945486068726,-4.919421195983887,-3.030487060546875,-2.3570451736450195,-0.6256474256515503,-0.09692737460136414,-0.6819749474525452,3.2637312412261963,0.13251276314258575,-0.002292649820446968
1781085641131421,px4_7,0.0261416994035244,-0.01929442211985588,0.0487060546875,0.04379628971219063,-0.05465497821569443,-0.0039551449008286,0.006668764166533947,-0.008124016225337982,0.0837608203291893,1.5368508100509644
1781085641146810,px4_3,0.03540952503681183,-0.039896197617053986,0.0682373046875,0.04400677606463432,-0.04748627170920372,0.0010957972845062613,0.06182820349931717,0.05779770016670227,-0.07122381776571274,1.5219519138336182
1781085641134714,px4_5,0.045302923768758774,-0.03238554671406746,0.076385498046875,0.049249351024627686,-0.04979658126831055,-0.003963847644627094,0.10225901007652283,-0.015592863783240318,0.07379566878080368,1.5405112504959106
1781085641158810,px4_4,0.036800969392061234,-0.03758810833096504,0.075897216796875,0.045966267585754395,-0.051906097680330276,-0.003006937447935343,-0.04732493683695793,-0.004725945182144642,0.02523418329656124,1.5403276681900024
1781085641168360,px4_8,0.046601541340351105,-0.034441761672496796,0.064971923828125,0.04818352684378624,-0.05776255950331688,-0.005912990774959326,0.02590571530163288,-0.03781522437930107,0.0953911766409874,1.5361043214797974
1781085641145993,px4_2,1.3258949518203735,-4.932952880859375,-3.0318603515625,-2.3688340187072754,-0.5752015709877014,-0.09434875100851059,-0.6768940687179565,3.2712934017181396,0.15608219802379608,-0.002380321966484189
1781085641147421,px4_7,0.025428537279367447,-0.01852351427078247,0.048828125,0.04379779472947121,-0.05526834726333618,-0.004127121530473232,0.018366269767284393,-0.1102277934551239,0.010209622792899609,1.5367885828018188
1781085641170810,px4_3,0.03563773259520531,-0.04007551446557045,0.06817626953125,0.04395616054534912,-0.04693756625056267,0.00036028007161803544,0.03421179950237274,-0.05006227269768715,-0.027793923392891884,1.5219453573226929
1781085641158714,px4_5,0.044267553836107254,-0.03203422948718071,0.076324462890625,0.04860258847475052,-0.05060223489999771,-0.0032135306391865015,0.024121075868606567,-0.05177833512425423,0.04254141449928284,1.5403786897659302
1781085641182810,px4_4,0.03586263209581375,-0.03662298992276192,0.076080322265625,0.046279989182949066,-0.0510527640581131,-0.0028895738068968058,0.026523854583501816,0.03527563810348511,0.0018854624358937144,1.5404083728790283
1781085641192360,px4_8,0.04590718448162079,-0.033714659512043,0.0648193359375,0.04855702817440033,-0.05843605846166611,-0.004121596459299326,0.04249078407883644,0.030029406771063805,0.033433545380830765,1.5359536409378052
1781085641169993,px4_2,1.2688583135604858,-4.951415061950684,-3.03387451171875,-2.3836231231689453,-0.4982684552669525,-0.09317120909690857,-0.6307997703552246,3.391400098800659,0.001261010649614036,-0.0024013954680413008
1781085641171421,px4_7,0.024489836767315865,-0.017551973462104797,0.049041748046875,0.042962681502103806,-0.0561775341629982,-0.002784144366160035,0.06844132393598557,-0.07788623124361038,0.025956889614462852,1.5369166135787964
1781085641186810,px4_3,0.035838671028614044,-0.040246155112981796,0.068145751953125,0.04417894035577774,-0.04749669134616852,-0.00045453564962372184,-0.00717195263132453,-0.07641208916902542,-0.04555796831846237,1.52195143699646
1781085641174714,px4_5,0.04366611689329147,-0.031868867576122284,0.0762939453125,0.04928973317146301,-0.049028825014829636,-0.0029428889974951744,0.0497814305126667,0.0382346548140049,-0.014244112186133862,1.5404409170150757
1781085641198810,px4_4,0.03534291312098503,-0.03605911135673523,0.076202392578125,0.046739362180233,-0.05007297173142433,-0.0028398188296705484,-0.022534672170877457,0.004773091524839401,-0.016901640221476555,1.540286660194397
1781085641208360,px4_8,0.0455443412065506,-0.033320605754852295,0.064666748046875,0.048909105360507965,-0.05837680771946907,-0.004265092313289642,0.046663422137498856,-0.1118241548538208,-0.0019515863386914134,1.5360993146896362
1781085641185993,px4_2,1.2306092977523804,-4.962489128112793,-3.035247802734375,-2.3948864936828613,-0.44663506746292114,-0.09148291498422623,-0.6983012557029724,3.3237009048461914,0.1207943931221962,-0.0023250188678503036
1781085641187421,px4_7,0.02394697815179825,-0.017015745863318443,0.0491943359375,0.04273262247443199,-0.056722596287727356,-0.0024385298602283,0.061290938407182693,-0.0934559628367424,-0.005897134076803923,1.5369337797164917
1781085641202810,px4_3,0.03606666252017021,-0.040451034903526306,0.068115234375,0.04328310489654541,-0.04641086235642433,-0.0005861427634954453,-0.05662757530808449,0.041285932064056396,-0.011316965334117413,1.5220030546188354
1781085641198714,px4_5,0.04289413243532181,-0.03171661123633385,0.0762939453125,0.0483408197760582,-0.04978666454553604,-0.0026153530925512314,0.005844303406774998,-0.06253203749656677,0.046419907361269,1.5402984619140625
1781085641222810,px4_4,0.03468680381774902,-0.0353497751057148,0.076385498046875,0.04702601209282875,-0.050693217664957047,-0.001282760757021606,0.05351478233933449,-0.021323204040527344,0.05495128780603409,1.540299892425537
1781085641232360,px4_8,0.0451376736164093,-0.03286568075418472,0.064483642578125,0.04831027612090111,-0.05771765112876892,-0.0032838894985616207,-0.04940371215343475,0.011464293114840984,0.004506669472903013,1.536098837852478
1781085641209993,px4_2,1.1729010343551636,-4.977240562438965,-3.03729248046875,-2.4094960689544678,-0.3691288232803345,-0.09009424597024918,-0.6531358361244202,3.2601728439331055,0.0695725828409195,-0.0023455964401364326
1781085641211421,px4_7,0.023265130817890167,-0.016350943595170975,0.0494384765625,0.04196165129542351,-0.05563352257013321,-0.0008311145356856287,-0.07432611286640167,0.00923953391611576,0.000568106712307781,1.5369596481323242
1781085641226810,px4_3,0.03646324947476387,-0.04081165790557861,0.068084716796875,0.043504636734724045,-0.04560818150639534,-0.001064327429048717,-0.027296924963593483,0.06729764491319656,0.00034039837191812694,1.5220896005630493
1781085641214714,px4_5,0.04245712235569954,-0.03168349340558052,0.0762939453125,0.0477093942463398,-0.05004870519042015,-0.0036212080158293247,-0.03879867121577263,-0.07070460915565491,-0.07879733294248581,1.5401870012283325
1781085641238810,px4_4,0.03433708846569061,-0.03496581315994263,0.076507568359375,0.04742274060845375,-0.050257179886102676,-0.0009970858227461576,0.07062115520238876,0.00548284687101841,0.0014947726158425212,1.5404971837997437
1781085641248360,px4_8,0.04492681846022606,-0.03264462575316429,0.064361572265625,0.047968097031116486,-0.058825306594371796,-0.0032693936955183744,0.04233027622103691,-0.11588866263628006,0.07342918962240219,1.5361967086791992
1781085641225993,px4_2,1.1341952085494995,-4.985888481140137,-3.03863525390625,-2.4220645427703857,-0.32006707787513733,-0.08884372562170029,-0.7871759533882141,3.1696276664733887,0.08919927477836609,-0.0022618514485657215
1781085641227421,px4_7,0.022879241034388542,-0.015973029658198357,0.049591064453125,0.04153577238321304,-0.05377347022294998,-0.0016122488304972649,-0.0071125756949186325,0.10942508280277252,-0.05998881161212921,1.5368634462356567
1781085641242810,px4_3,0.03675411269068718,-0.04107518121600151,0.068115234375,0.04220670461654663,-0.04524247720837593,-0.0008581288275308907,-0.05587596073746681,-0.011850886046886444,-0.061594877392053604,1.5220332145690918
1781085641238714,px4_5,0.041921813040971756,-0.031708888709545135,0.0762939453125,0.04850510507822037,-0.04919179156422615,-0.0035149327013641596,0.07841266691684723,-0.03112427517771721,-0.03916071355342865,1.5401183366775513
1781085641262810,px4_4,0.03393545001745224,-0.03448976203799248,0.076690673828125,0.0477120615541935,-0.04941018670797348,-0.0008216072455979884,0.057818520814180374,-0.042633917182683945,-0.018248332664370537,1.5405107736587524
1781085641272360,px4_8,0.044703684747219086,-0.03242969140410423,0.064208984375,0.04716460034251213,-0.05899456515908241,-0.004492312669754028,-0.07652215659618378,-0.11143264174461365,-0.02173660136759281,1.5361007452011108
1781085641249993,px4_2,1.075777292251587,-4.9971022605896,-3.04058837890625,-2.43782377243042,-0.24375595152378082,-0.08309569209814072,-0.6379594802856445,3.2785394191741943,0.2597882151603699,-0.0022988298442214727
1781085641251421,px4_7,0.022392412647604942,-0.015479285269975662,0.0498046875,0.04062081128358841,-0.05161161720752716,-0.001668489072471857,-0.005546934902667999,0.07794830948114395,0.012405681423842907,1.536621332168579
1781085641266810,px4_3,0.03723695129156113,-0.04152140021324158,0.068145751953125,0.04255884513258934,-0.044463202357292175,-0.0003395670501049608,-0.008229744620621204,0.05653403326869011,0.05141691863536835,1.522046446800232
1781085641254714,px4_5,0.041639335453510284,-0.0317661352455616,0.0762939453125,0.04764939099550247,-0.048440877348184586,-0.004247670527547598,-0.05188411474227905,0.024553103372454643,0.038056630641222,1.5399948358535767
1781085641278810,px4_4,0.03374249115586281,-0.03423171862959862,0.076812744140625,0.0472790002822876,-0.04802842438220978,-0.000667637912556529,-0.03872388228774071,0.04286344349384308,-0.005997251253575087,1.5405791997909546
1781085641288360,px4_8,0.044614795595407486,-0.03236804157495499,0.0640869140625,0.04773798584938049,-0.05924520269036293,-0.004310321062803268,0.050047896802425385,-0.013852034695446491,-0.013167503289878368,1.536104440689087
1781085641273993,px4_2,1.0169320106506348,-5.006180286407471,-3.04241943359375,-2.4540438652038574,-0.16581042110919952,-0.07847529649734497,-0.6652801036834717,3.3522353172302246,0.19439354538917542,-0.0022313378285616636
